"SOUND","VOICING","SEGMENT","SEGMENT3","SEGMENT2","STOP","SEGMENT4","STIMULUS","GENERAL_TYPE","PLACE","TYPE","trials.thisRepN","trials.thisTrialN","trials.thisN","trials.thisIndex","trials_2.thisRepN","trials_2.thisTrialN","trials_2.thisN","trials_2.thisIndex","SpaceBar.keys","SpaceBar.rt","key_resp_2.keys","key_resp_2.rt","rating.response","rating.rt","participant","Gender","Age","frameRate","OtherLanguages","NativeLanguage","expName","date","X34"
NA,NA,NA,NA,NA,NA,NA,NA,NA,NA,NA,NA,NA,NA,NA,NA,NA,NA,NA,"space",5.97569584846,NA,NA,NA,NA,120,FALSE,21,60.161595472,NA,"American English","VSH_Exp2","2016_Mar_24_1419",NA
"Recordings/sifu.wav","no","s","f","i","no","u","sifu","Training","alveolar","TrainingItems",0,0,0,16,NA,NA,NA,NA,NA,NA,NA,NA,NA,NA,120,FALSE,21,60.161595472,NA,"American English","VSH_Exp2","2016_Mar_24_1419",NA
"Recordings/bibu.wav","yes","b","b","i","yes","u","bibu","Training","bilabial","TrainingItems",0,1,1,50,NA,NA,NA,NA,NA,NA,NA,NA,NA,NA,120,FALSE,21,60.161595472,NA,"American English","VSH_Exp2","2016_Mar_24_1419",NA
"Recordings/tuti.wav","no","t","t","u","yes","i","tuti","Training","alveolar","TrainingItems",0,2,2,45,NA,NA,NA,NA,NA,NA,NA,NA,NA,NA,120,FALSE,21,60.161595472,NA,"American English","VSH_Exp2","2016_Mar_24_1419",NA
"Recordings/tita.wav","no","t","t","i","yes","a","tita","Training","alveolar","TrainingItems",0,3,3,60,NA,NA,NA,NA,NA,NA,NA,NA,NA,NA,120,FALSE,21,60.161595472,NA,"American English","VSH_Exp2","2016_Mar_24_1419",NA
"Recordings/bubi.wav","yes","b","b","u","yes","i","bubi","Training","bilabial","TrainingItems",0,4,4,47,NA,NA,NA,NA,NA,NA,NA,NA,NA,NA,120,FALSE,21,60.161595472,NA,"American English","VSH_Exp2","2016_Mar_24_1419",NA
"Recordings/vavi.wav","yes","v","v","a","no","i","vavi","Training","bilabial","TrainingItems",0,5,5,28,NA,NA,NA,NA,NA,NA,NA,NA,NA,NA,120,FALSE,21,60.161595472,NA,"American English","VSH_Exp2","2016_Mar_24_1419",NA
"Recordings/fasi.wav","no","f","s","a","no","i","fasi","Training","bilabial","TrainingItems",0,6,6,41,NA,NA,NA,NA,NA,NA,NA,NA,NA,NA,120,FALSE,21,60.161595472,NA,"American English","VSH_Exp2","2016_Mar_24_1419",NA
"Recordings/dadu.wav","yes","d","d","a","yes","u","dadu","Training","alveolar","TrainingItems",0,7,7,37,NA,NA,NA,NA,NA,NA,NA,NA,NA,NA,120,FALSE,21,60.161595472,NA,"American English","VSH_Exp2","2016_Mar_24_1419",NA
"Recordings/puti.wav","no","p","t","u","yes","i","puti","Training","bilabial","TrainingItems",0,8,8,80,NA,NA,NA,NA,NA,NA,NA,NA,NA,NA,120,FALSE,21,60.161595472,NA,"American English","VSH_Exp2","2016_Mar_24_1419",NA
"Recordings/pita.wav","no","p","t","i","yes","a","pita","Training","bilabial","TrainingItems",0,9,9,7,NA,NA,NA,NA,NA,NA,NA,NA,NA,NA,120,FALSE,21,60.161595472,NA,"American English","VSH_Exp2","2016_Mar_24_1419",NA
"Recordings/fasa.wav","no","f","s","a","no","a","fasa","Training","bilabial","TrainingItems",0,10,10,31,NA,NA,NA,NA,NA,NA,NA,NA,NA,NA,120,FALSE,21,60.161595472,NA,"American English","VSH_Exp2","2016_Mar_24_1419",NA
"Recordings/tatu.wav","no","t","t","a","yes","u","tatu","Training","alveolar","TrainingItems",0,11,11,90,NA,NA,NA,NA,NA,NA,NA,NA,NA,NA,120,FALSE,21,60.161595472,NA,"American English","VSH_Exp2","2016_Mar_24_1419",NA
"Recordings/pupu.wav","no","p","p","u","yes","u","pupu","Training","bilabial","TrainingItems",0,12,12,66,NA,NA,NA,NA,NA,NA,NA,NA,NA,NA,120,FALSE,21,60.161595472,NA,"American English","VSH_Exp2","2016_Mar_24_1419",NA
"Recordings/pupa.wav","no","p","p","u","yes","a","pupa","Training","bilabial","TrainingItems",0,13,13,94,NA,NA,NA,NA,NA,NA,NA,NA,NA,NA,120,FALSE,21,60.161595472,NA,"American English","VSH_Exp2","2016_Mar_24_1419",NA
"Recordings/fafu.wav","no","f","f","a","no","u","fafu","Training","bilabial","TrainingItems",0,14,14,39,NA,NA,NA,NA,NA,NA,NA,NA,NA,NA,120,FALSE,21,60.161595472,NA,"American English","VSH_Exp2","2016_Mar_24_1419",NA
"Recordings/bibi.wav","yes","b","b","i","yes","i","bibi","Training","bilabial","TrainingItems",0,15,15,83,NA,NA,NA,NA,NA,NA,NA,NA,NA,NA,120,FALSE,21,60.161595472,NA,"American English","VSH_Exp2","2016_Mar_24_1419",NA
"Recordings/dadi.wav","yes","d","d","a","yes","i","dadi","Training","alveolar","TrainingItems",0,16,16,32,NA,NA,NA,NA,NA,NA,NA,NA,NA,NA,120,FALSE,21,60.161595472,NA,"American English","VSH_Exp2","2016_Mar_24_1419",NA
"Recordings/babi.wav","yes","b","b","a","yes","i","babi","Training","bilabial","TrainingItems",0,17,17,34,NA,NA,NA,NA,NA,NA,NA,NA,NA,NA,120,FALSE,21,60.161595472,NA,"American English","VSH_Exp2","2016_Mar_24_1419",NA
"Recordings/vuva.wav","yes","v","v","u","no","a","vuva","Training","bilabial","TrainingItems",0,18,18,71,NA,NA,NA,NA,NA,NA,NA,NA,NA,NA,120,FALSE,21,60.161595472,NA,"American English","VSH_Exp2","2016_Mar_24_1419",NA
"Recordings/tati.wav","no","t","t","a","yes","i","tati","Training","alveolar","TrainingItems",0,19,19,5,NA,NA,NA,NA,NA,NA,NA,NA,NA,NA,120,FALSE,21,60.161595472,NA,"American English","VSH_Exp2","2016_Mar_24_1419",NA
"Recordings/vavu.wav","yes","v","v","a","no","u","vavu","Training","bilabial","TrainingItems",0,20,20,78,NA,NA,NA,NA,NA,NA,NA,NA,NA,NA,120,FALSE,21,60.161595472,NA,"American English","VSH_Exp2","2016_Mar_24_1419",NA
"Recordings/pupi.wav","no","p","p","u","yes","i","pupi","Training","bilabial","TrainingItems",0,21,21,44,NA,NA,NA,NA,NA,NA,NA,NA,NA,NA,120,FALSE,21,60.161595472,NA,"American English","VSH_Exp2","2016_Mar_24_1419",NA
"Recordings/tupi.wav","no","t","p","u","yes","i","tupi","Training","alveolar","TrainingItems",0,22,22,93,NA,NA,NA,NA,NA,NA,NA,NA,NA,NA,120,FALSE,21,60.161595472,NA,"American English","VSH_Exp2","2016_Mar_24_1419",NA
"Recordings/tupu.wav","no","t","p","u","yes","u","tupu","Training","alveolar","TrainingItems",0,23,23,13,NA,NA,NA,NA,NA,NA,NA,NA,NA,NA,120,FALSE,21,60.161595472,NA,"American English","VSH_Exp2","2016_Mar_24_1419",NA
"Recordings/buda.wav","yes","b","d","u","yes","a","buda","Training","bilabial","TrainingItems",0,24,24,70,NA,NA,NA,NA,NA,NA,NA,NA,NA,NA,120,FALSE,21,60.161595472,NA,"American English","VSH_Exp2","2016_Mar_24_1419",NA
"Recordings/zuza.wav","yes","z","z","u","no","a","zuza","Training","alveolar","TrainingItems",0,25,25,22,NA,NA,NA,NA,NA,NA,NA,NA,NA,NA,120,FALSE,21,60.161595472,NA,"American English","VSH_Exp2","2016_Mar_24_1419",NA
"Recordings/sisa.wav","no","s","s","i","no","a","sisa","Training","alveolar","TrainingItems",0,26,26,14,NA,NA,NA,NA,NA,NA,NA,NA,NA,NA,120,FALSE,21,60.161595472,NA,"American English","VSH_Exp2","2016_Mar_24_1419",NA
"Recordings/duda.wav","yes","d","d","u","yes","a","duda","Training","alveolar","TrainingItems",0,27,27,15,NA,NA,NA,NA,NA,NA,NA,NA,NA,NA,120,FALSE,21,60.161595472,NA,"American English","VSH_Exp2","2016_Mar_24_1419",NA
"Recordings/vivu.wav","yes","v","v","i","no","u","vivu","Training","bilabial","TrainingItems",0,28,28,61,NA,NA,NA,NA,NA,NA,NA,NA,NA,NA,120,FALSE,21,60.161595472,NA,"American English","VSH_Exp2","2016_Mar_24_1419",NA
"Recordings/zaza.wav","yes","z","z","a","no","a","zaza","Training","alveolar","TrainingItems",0,29,29,89,NA,NA,NA,NA,NA,NA,NA,NA,NA,NA,120,FALSE,21,60.161595472,NA,"American English","VSH_Exp2","2016_Mar_24_1419",NA
"Recordings/babu.wav","yes","b","b","a","yes","u","babu","Training","bilabial","TrainingItems",0,30,30,98,NA,NA,NA,NA,NA,NA,NA,NA,NA,NA,120,FALSE,21,60.161595472,NA,"American English","VSH_Exp2","2016_Mar_24_1419",NA
"Recordings/fifi.wav","no","f","f","i","no","i","fifi","Training","bilabial","TrainingItems",0,31,31,51,NA,NA,NA,NA,NA,NA,NA,NA,NA,NA,120,FALSE,21,60.161595472,NA,"American English","VSH_Exp2","2016_Mar_24_1419",NA
"Recordings/patu.wav","no","p","t","a","yes","u","patu","Training","bilabial","TrainingItems",0,32,32,57,NA,NA,NA,NA,NA,NA,NA,NA,NA,NA,120,FALSE,21,60.161595472,NA,"American English","VSH_Exp2","2016_Mar_24_1419",NA
"Recordings/papa.wav","no","p","p","a","yes","a","papa","Training","bilabial","TrainingItems",0,33,33,1,NA,NA,NA,NA,NA,NA,NA,NA,NA,NA,120,FALSE,21,60.161595472,NA,"American English","VSH_Exp2","2016_Mar_24_1419",NA
"Recordings/sasi.wav","no","s","s","a","no","i","sasi","Training","alveolar","TrainingItems",0,34,34,21,NA,NA,NA,NA,NA,NA,NA,NA,NA,NA,120,FALSE,21,60.161595472,NA,"American English","VSH_Exp2","2016_Mar_24_1419",NA
"Recordings/bubu.wav","yes","b","b","u","yes","u","bubu","Training","bilabial","TrainingItems",0,35,35,26,NA,NA,NA,NA,NA,NA,NA,NA,NA,NA,120,FALSE,21,60.161595472,NA,"American English","VSH_Exp2","2016_Mar_24_1419",NA
"Recordings/dudi.wav","yes","d","d","u","yes","i","dudi","Training","alveolar","TrainingItems",0,36,36,95,NA,NA,NA,NA,NA,NA,NA,NA,NA,NA,120,FALSE,21,60.161595472,NA,"American English","VSH_Exp2","2016_Mar_24_1419",NA
"Recordings/dada.wav","yes","d","d","a","yes","a","dada","Training","alveolar","TrainingItems",0,37,37,99,NA,NA,NA,NA,NA,NA,NA,NA,NA,NA,120,FALSE,21,60.161595472,NA,"American English","VSH_Exp2","2016_Mar_24_1419",NA
"Recordings/fusi.wav","no","f","s","u","no","i","fusi","Training","bilabial","TrainingItems",0,38,38,88,NA,NA,NA,NA,NA,NA,NA,NA,NA,NA,120,FALSE,21,60.161595472,NA,"American English","VSH_Exp2","2016_Mar_24_1419",NA
"Recordings/tapu.wav","no","t","p","a","yes","u","tapu","Training","alveolar","TrainingItems",0,39,39,52,NA,NA,NA,NA,NA,NA,NA,NA,NA,NA,120,FALSE,21,60.161595472,NA,"American English","VSH_Exp2","2016_Mar_24_1419",NA
"Recordings/fasu.wav","no","f","s","a","no","u","fasu","Training","bilabial","TrainingItems",0,40,40,4,NA,NA,NA,NA,NA,NA,NA,NA,NA,NA,120,FALSE,21,60.161595472,NA,"American English","VSH_Exp2","2016_Mar_24_1419",NA
"Recordings/didi.wav","yes","d","d","i","yes","i","didi","Training","alveolar","TrainingItems",0,41,41,64,NA,NA,NA,NA,NA,NA,NA,NA,NA,NA,120,FALSE,21,60.161595472,NA,"American English","VSH_Exp2","2016_Mar_24_1419",NA
"Recordings/safu.wav","no","s","f","a","no","u","safu","Training","alveolar","TrainingItems",0,42,42,85,NA,NA,NA,NA,NA,NA,NA,NA,NA,NA,120,FALSE,21,60.161595472,NA,"American English","VSH_Exp2","2016_Mar_24_1419",NA
"Recordings/tupa.wav","no","t","p","u","yes","a","tupa","Training","alveolar","TrainingItems",0,43,43,29,NA,NA,NA,NA,NA,NA,NA,NA,NA,NA,120,FALSE,21,60.161595472,NA,"American English","VSH_Exp2","2016_Mar_24_1419",NA
"Recordings/sisu.wav","no","s","s","i","no","u","sisu","Training","alveolar","TrainingItems",0,44,44,54,NA,NA,NA,NA,NA,NA,NA,NA,NA,NA,120,FALSE,21,60.161595472,NA,"American English","VSH_Exp2","2016_Mar_24_1419",NA
"Recordings/pipa.wav","no","p","p","i","yes","a","pipa","Training","bilabial","TrainingItems",0,45,45,25,NA,NA,NA,NA,NA,NA,NA,NA,NA,NA,120,FALSE,21,60.161595472,NA,"American English","VSH_Exp2","2016_Mar_24_1419",NA
"Recordings/fafi.wav","no","f","f","a","no","i","fafi","Training","bilabial","TrainingItems",0,46,46,79,NA,NA,NA,NA,NA,NA,NA,NA,NA,NA,120,FALSE,21,60.161595472,NA,"American English","VSH_Exp2","2016_Mar_24_1419",NA
"Recordings/pitu.wav","no","p","t","i","yes","u","pitu","Training","bilabial","TrainingItems",0,47,47,74,NA,NA,NA,NA,NA,NA,NA,NA,NA,NA,120,FALSE,21,60.161595472,NA,"American English","VSH_Exp2","2016_Mar_24_1419",NA
"Recordings/piti.wav","no","p","t","i","yes","i","piti","Training","bilabial","TrainingItems",0,48,48,9,NA,NA,NA,NA,NA,NA,NA,NA,NA,NA,120,FALSE,21,60.161595472,NA,"American English","VSH_Exp2","2016_Mar_24_1419",NA
"Recordings/zizu.wav","yes","z","z","i","no","u","zizu","Training","alveolar","TrainingItems",0,49,49,53,NA,NA,NA,NA,NA,NA,NA,NA,NA,NA,120,FALSE,21,60.161595472,NA,"American English","VSH_Exp2","2016_Mar_24_1419",NA
"Recordings/pipi.wav","no","p","p","i","yes","i","pipi","Training","bilabial","TrainingItems",0,50,50,97,NA,NA,NA,NA,NA,NA,NA,NA,NA,NA,120,FALSE,21,60.161595472,NA,"American English","VSH_Exp2","2016_Mar_24_1419",NA
"Recordings/budu.wav","yes","b","d","u","yes","u","budu","Training","bilabial","TrainingItems",0,51,51,72,NA,NA,NA,NA,NA,NA,NA,NA,NA,NA,120,FALSE,21,60.161595472,NA,"American English","VSH_Exp2","2016_Mar_24_1419",NA
"Recordings/sasu.wav","no","s","s","a","no","u","sasu","Training","alveolar","TrainingItems",0,52,52,59,NA,NA,NA,NA,NA,NA,NA,NA,NA,NA,120,FALSE,21,60.161595472,NA,"American English","VSH_Exp2","2016_Mar_24_1419",NA
"Recordings/susi.wav","no","s","s","u","no","i","susi","Training","alveolar","TrainingItems",0,53,53,17,NA,NA,NA,NA,NA,NA,NA,NA,NA,NA,120,FALSE,21,60.161595472,NA,"American English","VSH_Exp2","2016_Mar_24_1419",NA
"Recordings/baba.wav","yes","b","b","a","yes","a","baba","Training","bilabial","TrainingItems",0,54,54,58,NA,NA,NA,NA,NA,NA,NA,NA,NA,NA,120,FALSE,21,60.161595472,NA,"American English","VSH_Exp2","2016_Mar_24_1419",NA
"Recordings/bidi.wav","yes","b","d","i","yes","i","bidi","Training","bilabial","TrainingItems",0,55,55,20,NA,NA,NA,NA,NA,NA,NA,NA,NA,NA,120,FALSE,21,60.161595472,NA,"American English","VSH_Exp2","2016_Mar_24_1419",NA
"Recordings/fufi.wav","no","f","f","u","no","i","fufi","Training","bilabial","TrainingItems",0,56,56,92,NA,NA,NA,NA,NA,NA,NA,NA,NA,NA,120,FALSE,21,60.161595472,NA,"American English","VSH_Exp2","2016_Mar_24_1419",NA
"Recordings/badi.wav","yes","b","d","a","yes","i","badi","Training","bilabial","TrainingItems",0,57,57,11,NA,NA,NA,NA,NA,NA,NA,NA,NA,NA,120,FALSE,21,60.161595472,NA,"American English","VSH_Exp2","2016_Mar_24_1419",NA
"Recordings/pipu.wav","no","p","p","i","yes","u","pipu","Training","bilabial","TrainingItems",0,58,58,69,NA,NA,NA,NA,NA,NA,NA,NA,NA,NA,120,FALSE,21,60.161595472,NA,"American English","VSH_Exp2","2016_Mar_24_1419",NA
"Recordings/viva.wav","yes","v","v","i","no","a","viva","Training","bilabial","TrainingItems",0,59,59,30,NA,NA,NA,NA,NA,NA,NA,NA,NA,NA,120,FALSE,21,60.161595472,NA,"American English","VSH_Exp2","2016_Mar_24_1419",NA
"Recordings/dida.wav","yes","d","d","i","yes","a","dida","Training","alveolar","TrainingItems",0,60,60,40,NA,NA,NA,NA,NA,NA,NA,NA,NA,NA,120,FALSE,21,60.161595472,NA,"American English","VSH_Exp2","2016_Mar_24_1419",NA
"Recordings/vava.wav","yes","v","v","a","no","a","vava","Training","bilabial","TrainingItems",0,61,61,38,NA,NA,NA,NA,NA,NA,NA,NA,NA,NA,120,FALSE,21,60.161595472,NA,"American English","VSH_Exp2","2016_Mar_24_1419",NA
"Recordings/fufa.wav","no","f","f","u","no","a","fufa","Training","bilabial","TrainingItems",0,62,62,96,NA,NA,NA,NA,NA,NA,NA,NA,NA,NA,120,FALSE,21,60.161595472,NA,"American English","VSH_Exp2","2016_Mar_24_1419",NA
"Recordings/fifa.wav","no","f","f","i","no","a","fifa","Training","bilabial","TrainingItems",0,63,63,18,NA,NA,NA,NA,NA,NA,NA,NA,NA,NA,120,FALSE,21,60.161595472,NA,"American English","VSH_Exp2","2016_Mar_24_1419",NA
"Recordings/sisi.wav","no","s","s","i","no","i","sisi","Training","alveolar","TrainingItems",0,64,64,24,NA,NA,NA,NA,NA,NA,NA,NA,NA,NA,120,FALSE,21,60.161595472,NA,"American English","VSH_Exp2","2016_Mar_24_1419",NA
"Recordings/tipa.wav","no","t","p","i","yes","a","tipa","Training","alveolar","TrainingItems",0,65,65,19,NA,NA,NA,NA,NA,NA,NA,NA,NA,NA,120,FALSE,21,60.161595472,NA,"American English","VSH_Exp2","2016_Mar_24_1419",NA
"Recordings/papu.wav","no","p","p","a","yes","u","papu","Training","bilabial","TrainingItems",0,66,66,3,NA,NA,NA,NA,NA,NA,NA,NA,NA,NA,120,FALSE,21,60.161595472,NA,"American English","VSH_Exp2","2016_Mar_24_1419",NA
"Recordings/zuzi.wav","yes","z","z","u","no","i","zuzi","Training","alveolar","TrainingItems",0,67,67,81,NA,NA,NA,NA,NA,NA,NA,NA,NA,NA,120,FALSE,21,60.161595472,NA,"American English","VSH_Exp2","2016_Mar_24_1419",NA
"Recordings/zuzu.wav","yes","z","z","u","no","u","zuzu","Training","alveolar","TrainingItems",0,68,68,12,NA,NA,NA,NA,NA,NA,NA,NA,NA,NA,120,FALSE,21,60.161595472,NA,"American English","VSH_Exp2","2016_Mar_24_1419",NA
"Recordings/sufa.wav","no","s","f","u","no","a","sufa","Training","alveolar","TrainingItems",0,69,69,27,NA,NA,NA,NA,NA,NA,NA,NA,NA,NA,120,FALSE,21,60.161595472,NA,"American English","VSH_Exp2","2016_Mar_24_1419",NA
"Recordings/pata.wav","no","p","t","a","yes","a","pata","Training","bilabial","TrainingItems",0,70,70,87,NA,NA,NA,NA,NA,NA,NA,NA,NA,NA,120,FALSE,21,60.161595472,NA,"American English","VSH_Exp2","2016_Mar_24_1419",NA
"Recordings/bada.wav","yes","b","d","a","yes","a","bada","Training","bilabial","TrainingItems",0,71,71,65,NA,NA,NA,NA,NA,NA,NA,NA,NA,NA,120,FALSE,21,60.161595472,NA,"American English","VSH_Exp2","2016_Mar_24_1419",NA
"Recordings/vuvu.wav","yes","v","v","u","no","u","vuvu","Training","bilabial","TrainingItems",0,72,72,23,NA,NA,NA,NA,NA,NA,NA,NA,NA,NA,120,FALSE,21,60.161595472,NA,"American English","VSH_Exp2","2016_Mar_24_1419",NA
"Recordings/tata.wav","no","t","t","a","yes","a","tata","Training","alveolar","TrainingItems",0,73,73,77,NA,NA,NA,NA,NA,NA,NA,NA,NA,NA,120,FALSE,21,60.161595472,NA,"American English","VSH_Exp2","2016_Mar_24_1419",NA
"Recordings/vivi.wav","yes","v","v","i","no","i","vivi","Training","bilabial","TrainingItems",0,74,74,6,NA,NA,NA,NA,NA,NA,NA,NA,NA,NA,120,FALSE,21,60.161595472,NA,"American English","VSH_Exp2","2016_Mar_24_1419",NA
"Recordings/ziza.wav","yes","z","z","i","no","a","ziza","Training","alveolar","TrainingItems",0,75,75,91,NA,NA,NA,NA,NA,NA,NA,NA,NA,NA,120,FALSE,21,60.161595472,NA,"American English","VSH_Exp2","2016_Mar_24_1419",NA
"Recordings/bida.wav","yes","b","d","i","yes","a","bida","Training","bilabial","TrainingItems",0,76,76,68,NA,NA,NA,NA,NA,NA,NA,NA,NA,NA,120,FALSE,21,60.161595472,NA,"American English","VSH_Exp2","2016_Mar_24_1419",NA
"Recordings/fifu.wav","no","f","f","i","no","u","fifu","Training","bilabial","TrainingItems",0,77,77,76,NA,NA,NA,NA,NA,NA,NA,NA,NA,NA,120,FALSE,21,60.161595472,NA,"American English","VSH_Exp2","2016_Mar_24_1419",NA
"Recordings/zazi.wav","yes","z","z","a","no","i","zazi","Training","alveolar","TrainingItems",0,78,78,75,NA,NA,NA,NA,NA,NA,NA,NA,NA,NA,120,FALSE,21,60.161595472,NA,"American English","VSH_Exp2","2016_Mar_24_1419",NA
"Recordings/susu.wav","no","s","s","u","no","u","susu","Training","alveolar","TrainingItems",0,79,79,84,NA,NA,NA,NA,NA,NA,NA,NA,NA,NA,120,FALSE,21,60.161595472,NA,"American English","VSH_Exp2","2016_Mar_24_1419",NA
"Recordings/dudu.wav","yes","d","d","u","yes","u","dudu","Training","alveolar","TrainingItems",0,80,80,56,NA,NA,NA,NA,NA,NA,NA,NA,NA,NA,120,FALSE,21,60.161595472,NA,"American English","VSH_Exp2","2016_Mar_24_1419",NA
"Recordings/sufu.wav","no","s","f","u","no","u","sufu","Training","alveolar","TrainingItems",0,81,81,42,NA,NA,NA,NA,NA,NA,NA,NA,NA,NA,120,FALSE,21,60.161595472,NA,"American English","VSH_Exp2","2016_Mar_24_1419",NA
"Recordings/biba.wav","yes","b","b","i","yes","a","biba","Training","bilabial","TrainingItems",0,82,82,33,NA,NA,NA,NA,NA,NA,NA,NA,NA,NA,120,FALSE,21,60.161595472,NA,"American English","VSH_Exp2","2016_Mar_24_1419",NA
"Recordings/budi.wav","yes","b","d","u","yes","i","budi","Training","bilabial","TrainingItems",0,83,83,86,NA,NA,NA,NA,NA,NA,NA,NA,NA,NA,120,FALSE,21,60.161595472,NA,"American English","VSH_Exp2","2016_Mar_24_1419",NA
"Recordings/puta.wav","no","p","t","u","yes","a","puta","Training","bilabial","TrainingItems",0,84,84,10,NA,NA,NA,NA,NA,NA,NA,NA,NA,NA,120,FALSE,21,60.161595472,NA,"American English","VSH_Exp2","2016_Mar_24_1419",NA
"Recordings/papi.wav","no","p","p","a","yes","i","papi","Training","bilabial","TrainingItems",0,85,85,8,NA,NA,NA,NA,NA,NA,NA,NA,NA,NA,120,FALSE,21,60.161595472,NA,"American English","VSH_Exp2","2016_Mar_24_1419",NA
"Recordings/dabi.wav","yes","d","b","a","yes","i","dabi","Training","alveolar","TrainingItems",0,86,86,2,NA,NA,NA,NA,NA,NA,NA,NA,NA,NA,120,FALSE,21,60.161595472,NA,"American English","VSH_Exp2","2016_Mar_24_1419",NA
"Recordings/daba.wav","yes","d","b","a","yes","a","daba","Training","alveolar","TrainingItems",0,87,87,35,NA,NA,NA,NA,NA,NA,NA,NA,NA,NA,120,FALSE,21,60.161595472,NA,"American English","VSH_Exp2","2016_Mar_24_1419",NA
"Recordings/fufu.wav","no","f","f","u","no","u","fufu","Training","bilabial","TrainingItems",0,88,88,55,NA,NA,NA,NA,NA,NA,NA,NA,NA,NA,120,FALSE,21,60.161595472,NA,"American English","VSH_Exp2","2016_Mar_24_1419",NA
"Recordings/buba.wav","yes","b","b","u","yes","a","buba","Training","bilabial","TrainingItems",0,89,89,62,NA,NA,NA,NA,NA,NA,NA,NA,NA,NA,120,FALSE,21,60.161595472,NA,"American English","VSH_Exp2","2016_Mar_24_1419",NA
"Recordings/pati.wav","no","p","t","a","yes","i","pati","Training","bilabial","TrainingItems",0,90,90,49,NA,NA,NA,NA,NA,NA,NA,NA,NA,NA,120,FALSE,21,60.161595472,NA,"American English","VSH_Exp2","2016_Mar_24_1419",NA
"Recordings/dibi.wav","yes","d","b","i","yes","i","dibi","Training","alveolar","TrainingItems",0,91,91,67,NA,NA,NA,NA,NA,NA,NA,NA,NA,NA,120,FALSE,21,60.161595472,NA,"American English","VSH_Exp2","2016_Mar_24_1419",NA
"Recordings/badu.wav","yes","b","d","a","yes","u","badu","Training","bilabial","TrainingItems",0,92,92,0,NA,NA,NA,NA,NA,NA,NA,NA,NA,NA,120,FALSE,21,60.161595472,NA,"American English","VSH_Exp2","2016_Mar_24_1419",NA
"Recordings/safa.wav","no","s","f","a","no","a","safa","Training","alveolar","TrainingItems",0,93,93,46,NA,NA,NA,NA,NA,NA,NA,NA,NA,NA,120,FALSE,21,60.161595472,NA,"American English","VSH_Exp2","2016_Mar_24_1419",NA
"Recordings/dibu.wav","yes","d","b","i","yes","u","dibu","Training","alveolar","TrainingItems",0,94,94,82,NA,NA,NA,NA,NA,NA,NA,NA,NA,NA,120,FALSE,21,60.161595472,NA,"American English","VSH_Exp2","2016_Mar_24_1419",NA
"Recordings/vuvi.wav","yes","v","v","u","no","i","vuvi","Training","bilabial","TrainingItems",0,95,95,43,NA,NA,NA,NA,NA,NA,NA,NA,NA,NA,120,FALSE,21,60.161595472,NA,"American English","VSH_Exp2","2016_Mar_24_1419",NA
"Recordings/tipi.wav","no","t","p","i","yes","i","tipi","Training","alveolar","TrainingItems",0,96,96,48,NA,NA,NA,NA,NA,NA,NA,NA,NA,NA,120,FALSE,21,60.161595472,NA,"American English","VSH_Exp2","2016_Mar_24_1419",NA
"Recordings/fusa.wav","no","f","s","u","no","a","fusa","Training","bilabial","TrainingItems",0,97,97,36,NA,NA,NA,NA,NA,NA,NA,NA,NA,NA,120,FALSE,21,60.161595472,NA,"American English","VSH_Exp2","2016_Mar_24_1419",NA
"Recordings/tipu.wav","no","t","p","i","yes","u","tipu","Training","alveolar","TrainingItems",0,98,98,63,NA,NA,NA,NA,NA,NA,NA,NA,NA,NA,120,FALSE,21,60.161595472,NA,"American English","VSH_Exp2","2016_Mar_24_1419",NA
"Recordings/dubu.wav","yes","d","b","u","yes","u","dubu","Training","alveolar","TrainingItems",0,99,99,73,NA,NA,NA,NA,NA,NA,NA,NA,NA,NA,120,FALSE,21,60.161595472,NA,"American English","VSH_Exp2","2016_Mar_24_1419",NA
"Recordings/vuvu.wav","yes","v","v","u","no","u","vuvu","Training","bilabial","TrainingItems",1,0,100,23,NA,NA,NA,NA,NA,NA,NA,NA,NA,NA,120,FALSE,21,60.161595472,NA,"American English","VSH_Exp2","2016_Mar_24_1419",NA
"Recordings/fafu.wav","no","f","f","a","no","u","fafu","Training","bilabial","TrainingItems",1,1,101,39,NA,NA,NA,NA,NA,NA,NA,NA,NA,NA,120,FALSE,21,60.161595472,NA,"American English","VSH_Exp2","2016_Mar_24_1419",NA
"Recordings/daba.wav","yes","d","b","a","yes","a","daba","Training","alveolar","TrainingItems",1,2,102,35,NA,NA,NA,NA,NA,NA,NA,NA,NA,NA,120,FALSE,21,60.161595472,NA,"American English","VSH_Exp2","2016_Mar_24_1419",NA
"Recordings/dubu.wav","yes","d","b","u","yes","u","dubu","Training","alveolar","TrainingItems",1,3,103,73,NA,NA,NA,NA,NA,NA,NA,NA,NA,NA,120,FALSE,21,60.161595472,NA,"American English","VSH_Exp2","2016_Mar_24_1419",NA
"Recordings/bubu.wav","yes","b","b","u","yes","u","bubu","Training","bilabial","TrainingItems",1,4,104,26,NA,NA,NA,NA,NA,NA,NA,NA,NA,NA,120,FALSE,21,60.161595472,NA,"American English","VSH_Exp2","2016_Mar_24_1419",NA
"Recordings/bibi.wav","yes","b","b","i","yes","i","bibi","Training","bilabial","TrainingItems",1,5,105,83,NA,NA,NA,NA,NA,NA,NA,NA,NA,NA,120,FALSE,21,60.161595472,NA,"American English","VSH_Exp2","2016_Mar_24_1419",NA
"Recordings/vivi.wav","yes","v","v","i","no","i","vivi","Training","bilabial","TrainingItems",1,6,106,6,NA,NA,NA,NA,NA,NA,NA,NA,NA,NA,120,FALSE,21,60.161595472,NA,"American English","VSH_Exp2","2016_Mar_24_1419",NA
"Recordings/badu.wav","yes","b","d","a","yes","u","badu","Training","bilabial","TrainingItems",1,7,107,0,NA,NA,NA,NA,NA,NA,NA,NA,NA,NA,120,FALSE,21,60.161595472,NA,"American English","VSH_Exp2","2016_Mar_24_1419",NA
"Recordings/zuzu.wav","yes","z","z","u","no","u","zuzu","Training","alveolar","TrainingItems",1,8,108,12,NA,NA,NA,NA,NA,NA,NA,NA,NA,NA,120,FALSE,21,60.161595472,NA,"American English","VSH_Exp2","2016_Mar_24_1419",NA
"Recordings/pati.wav","no","p","t","a","yes","i","pati","Training","bilabial","TrainingItems",1,9,109,49,NA,NA,NA,NA,NA,NA,NA,NA,NA,NA,120,FALSE,21,60.161595472,NA,"American English","VSH_Exp2","2016_Mar_24_1419",NA
"Recordings/papa.wav","no","p","p","a","yes","a","papa","Training","bilabial","TrainingItems",1,10,110,1,NA,NA,NA,NA,NA,NA,NA,NA,NA,NA,120,FALSE,21,60.161595472,NA,"American English","VSH_Exp2","2016_Mar_24_1419",NA
"Recordings/puti.wav","no","p","t","u","yes","i","puti","Training","bilabial","TrainingItems",1,11,111,80,NA,NA,NA,NA,NA,NA,NA,NA,NA,NA,120,FALSE,21,60.161595472,NA,"American English","VSH_Exp2","2016_Mar_24_1419",NA
"Recordings/buba.wav","yes","b","b","u","yes","a","buba","Training","bilabial","TrainingItems",1,12,112,62,NA,NA,NA,NA,NA,NA,NA,NA,NA,NA,120,FALSE,21,60.161595472,NA,"American English","VSH_Exp2","2016_Mar_24_1419",NA
"Recordings/fufu.wav","no","f","f","u","no","u","fufu","Training","bilabial","TrainingItems",1,13,113,55,NA,NA,NA,NA,NA,NA,NA,NA,NA,NA,120,FALSE,21,60.161595472,NA,"American English","VSH_Exp2","2016_Mar_24_1419",NA
"Recordings/piti.wav","no","p","t","i","yes","i","piti","Training","bilabial","TrainingItems",1,14,114,9,NA,NA,NA,NA,NA,NA,NA,NA,NA,NA,120,FALSE,21,60.161595472,NA,"American English","VSH_Exp2","2016_Mar_24_1419",NA
"Recordings/dudi.wav","yes","d","d","u","yes","i","dudi","Training","alveolar","TrainingItems",1,15,115,95,NA,NA,NA,NA,NA,NA,NA,NA,NA,NA,120,FALSE,21,60.161595472,NA,"American English","VSH_Exp2","2016_Mar_24_1419",NA
"Recordings/vuva.wav","yes","v","v","u","no","a","vuva","Training","bilabial","TrainingItems",1,16,116,71,NA,NA,NA,NA,NA,NA,NA,NA,NA,NA,120,FALSE,21,60.161595472,NA,"American English","VSH_Exp2","2016_Mar_24_1419",NA
"Recordings/tita.wav","no","t","t","i","yes","a","tita","Training","alveolar","TrainingItems",1,17,117,60,NA,NA,NA,NA,NA,NA,NA,NA,NA,NA,120,FALSE,21,60.161595472,NA,"American English","VSH_Exp2","2016_Mar_24_1419",NA
"Recordings/tupa.wav","no","t","p","u","yes","a","tupa","Training","alveolar","TrainingItems",1,18,118,29,NA,NA,NA,NA,NA,NA,NA,NA,NA,NA,120,FALSE,21,60.161595472,NA,"American English","VSH_Exp2","2016_Mar_24_1419",NA
"Recordings/vavi.wav","yes","v","v","a","no","i","vavi","Training","bilabial","TrainingItems",1,19,119,28,NA,NA,NA,NA,NA,NA,NA,NA,NA,NA,120,FALSE,21,60.161595472,NA,"American English","VSH_Exp2","2016_Mar_24_1419",NA
"Recordings/fifu.wav","no","f","f","i","no","u","fifu","Training","bilabial","TrainingItems",1,20,120,76,NA,NA,NA,NA,NA,NA,NA,NA,NA,NA,120,FALSE,21,60.161595472,NA,"American English","VSH_Exp2","2016_Mar_24_1419",NA
"Recordings/zaza.wav","yes","z","z","a","no","a","zaza","Training","alveolar","TrainingItems",1,21,121,89,NA,NA,NA,NA,NA,NA,NA,NA,NA,NA,120,FALSE,21,60.161595472,NA,"American English","VSH_Exp2","2016_Mar_24_1419",NA
"Recordings/fifa.wav","no","f","f","i","no","a","fifa","Training","bilabial","TrainingItems",1,22,122,18,NA,NA,NA,NA,NA,NA,NA,NA,NA,NA,120,FALSE,21,60.161595472,NA,"American English","VSH_Exp2","2016_Mar_24_1419",NA
"Recordings/fufi.wav","no","f","f","u","no","i","fufi","Training","bilabial","TrainingItems",1,23,123,92,NA,NA,NA,NA,NA,NA,NA,NA,NA,NA,120,FALSE,21,60.161595472,NA,"American English","VSH_Exp2","2016_Mar_24_1419",NA
"Recordings/pupi.wav","no","p","p","u","yes","i","pupi","Training","bilabial","TrainingItems",1,24,124,44,NA,NA,NA,NA,NA,NA,NA,NA,NA,NA,120,FALSE,21,60.161595472,NA,"American English","VSH_Exp2","2016_Mar_24_1419",NA
"Recordings/tupi.wav","no","t","p","u","yes","i","tupi","Training","alveolar","TrainingItems",1,25,125,93,NA,NA,NA,NA,NA,NA,NA,NA,NA,NA,120,FALSE,21,60.161595472,NA,"American English","VSH_Exp2","2016_Mar_24_1419",NA
"Recordings/tipu.wav","no","t","p","i","yes","u","tipu","Training","alveolar","TrainingItems",1,26,126,63,NA,NA,NA,NA,NA,NA,NA,NA,NA,NA,120,FALSE,21,60.161595472,NA,"American English","VSH_Exp2","2016_Mar_24_1419",NA
"Recordings/dadi.wav","yes","d","d","a","yes","i","dadi","Training","alveolar","TrainingItems",1,27,127,32,NA,NA,NA,NA,NA,NA,NA,NA,NA,NA,120,FALSE,21,60.161595472,NA,"American English","VSH_Exp2","2016_Mar_24_1419",NA
"Recordings/tuti.wav","no","t","t","u","yes","i","tuti","Training","alveolar","TrainingItems",1,28,128,45,NA,NA,NA,NA,NA,NA,NA,NA,NA,NA,120,FALSE,21,60.161595472,NA,"American English","VSH_Exp2","2016_Mar_24_1419",NA
"Recordings/papi.wav","no","p","p","a","yes","i","papi","Training","bilabial","TrainingItems",1,29,129,8,NA,NA,NA,NA,NA,NA,NA,NA,NA,NA,120,FALSE,21,60.161595472,NA,"American English","VSH_Exp2","2016_Mar_24_1419",NA
"Recordings/fifi.wav","no","f","f","i","no","i","fifi","Training","bilabial","TrainingItems",1,30,130,51,NA,NA,NA,NA,NA,NA,NA,NA,NA,NA,120,FALSE,21,60.161595472,NA,"American English","VSH_Exp2","2016_Mar_24_1419",NA
"Recordings/fafi.wav","no","f","f","a","no","i","fafi","Training","bilabial","TrainingItems",1,31,131,79,NA,NA,NA,NA,NA,NA,NA,NA,NA,NA,120,FALSE,21,60.161595472,NA,"American English","VSH_Exp2","2016_Mar_24_1419",NA
"Recordings/duda.wav","yes","d","d","u","yes","a","duda","Training","alveolar","TrainingItems",1,32,132,15,NA,NA,NA,NA,NA,NA,NA,NA,NA,NA,120,FALSE,21,60.161595472,NA,"American English","VSH_Exp2","2016_Mar_24_1419",NA
"Recordings/fasi.wav","no","f","s","a","no","i","fasi","Training","bilabial","TrainingItems",1,33,133,41,NA,NA,NA,NA,NA,NA,NA,NA,NA,NA,120,FALSE,21,60.161595472,NA,"American English","VSH_Exp2","2016_Mar_24_1419",NA
"Recordings/biba.wav","yes","b","b","i","yes","a","biba","Training","bilabial","TrainingItems",1,34,134,33,NA,NA,NA,NA,NA,NA,NA,NA,NA,NA,120,FALSE,21,60.161595472,NA,"American English","VSH_Exp2","2016_Mar_24_1419",NA
"Recordings/tata.wav","no","t","t","a","yes","a","tata","Training","alveolar","TrainingItems",1,35,135,77,NA,NA,NA,NA,NA,NA,NA,NA,NA,NA,120,FALSE,21,60.161595472,NA,"American English","VSH_Exp2","2016_Mar_24_1419",NA
"Recordings/susi.wav","no","s","s","u","no","i","susi","Training","alveolar","TrainingItems",1,36,136,17,NA,NA,NA,NA,NA,NA,NA,NA,NA,NA,120,FALSE,21,60.161595472,NA,"American English","VSH_Exp2","2016_Mar_24_1419",NA
"Recordings/sisu.wav","no","s","s","i","no","u","sisu","Training","alveolar","TrainingItems",1,37,137,54,NA,NA,NA,NA,NA,NA,NA,NA,NA,NA,120,FALSE,21,60.161595472,NA,"American English","VSH_Exp2","2016_Mar_24_1419",NA
"Recordings/vavu.wav","yes","v","v","a","no","u","vavu","Training","bilabial","TrainingItems",1,38,138,78,NA,NA,NA,NA,NA,NA,NA,NA,NA,NA,120,FALSE,21,60.161595472,NA,"American English","VSH_Exp2","2016_Mar_24_1419",NA
"Recordings/didi.wav","yes","d","d","i","yes","i","didi","Training","alveolar","TrainingItems",1,39,139,64,NA,NA,NA,NA,NA,NA,NA,NA,NA,NA,120,FALSE,21,60.161595472,NA,"American English","VSH_Exp2","2016_Mar_24_1419",NA
"Recordings/fasa.wav","no","f","s","a","no","a","fasa","Training","bilabial","TrainingItems",1,40,140,31,NA,NA,NA,NA,NA,NA,NA,NA,NA,NA,120,FALSE,21,60.161595472,NA,"American English","VSH_Exp2","2016_Mar_24_1419",NA
"Recordings/zuza.wav","yes","z","z","u","no","a","zuza","Training","alveolar","TrainingItems",1,41,141,22,NA,NA,NA,NA,NA,NA,NA,NA,NA,NA,120,FALSE,21,60.161595472,NA,"American English","VSH_Exp2","2016_Mar_24_1419",NA
"Recordings/pitu.wav","no","p","t","i","yes","u","pitu","Training","bilabial","TrainingItems",1,42,142,74,NA,NA,NA,NA,NA,NA,NA,NA,NA,NA,120,FALSE,21,60.161595472,NA,"American English","VSH_Exp2","2016_Mar_24_1419",NA
"Recordings/zizu.wav","yes","z","z","i","no","u","zizu","Training","alveolar","TrainingItems",1,43,143,53,NA,NA,NA,NA,NA,NA,NA,NA,NA,NA,120,FALSE,21,60.161595472,NA,"American English","VSH_Exp2","2016_Mar_24_1419",NA
"Recordings/bida.wav","yes","b","d","i","yes","a","bida","Training","bilabial","TrainingItems",1,44,144,68,NA,NA,NA,NA,NA,NA,NA,NA,NA,NA,120,FALSE,21,60.161595472,NA,"American English","VSH_Exp2","2016_Mar_24_1419",NA
"Recordings/puta.wav","no","p","t","u","yes","a","puta","Training","bilabial","TrainingItems",1,45,145,10,NA,NA,NA,NA,NA,NA,NA,NA,NA,NA,120,FALSE,21,60.161595472,NA,"American English","VSH_Exp2","2016_Mar_24_1419",NA
"Recordings/tatu.wav","no","t","t","a","yes","u","tatu","Training","alveolar","TrainingItems",1,46,146,90,NA,NA,NA,NA,NA,NA,NA,NA,NA,NA,120,FALSE,21,60.161595472,NA,"American English","VSH_Exp2","2016_Mar_24_1419",NA
"Recordings/bada.wav","yes","b","d","a","yes","a","bada","Training","bilabial","TrainingItems",1,47,147,65,NA,NA,NA,NA,NA,NA,NA,NA,NA,NA,120,FALSE,21,60.161595472,NA,"American English","VSH_Exp2","2016_Mar_24_1419",NA
"Recordings/papu.wav","no","p","p","a","yes","u","papu","Training","bilabial","TrainingItems",1,48,148,3,NA,NA,NA,NA,NA,NA,NA,NA,NA,NA,120,FALSE,21,60.161595472,NA,"American English","VSH_Exp2","2016_Mar_24_1419",NA
"Recordings/dudu.wav","yes","d","d","u","yes","u","dudu","Training","alveolar","TrainingItems",1,49,149,56,NA,NA,NA,NA,NA,NA,NA,NA,NA,NA,120,FALSE,21,60.161595472,NA,"American English","VSH_Exp2","2016_Mar_24_1419",NA
"Recordings/pita.wav","no","p","t","i","yes","a","pita","Training","bilabial","TrainingItems",1,50,150,7,NA,NA,NA,NA,NA,NA,NA,NA,NA,NA,120,FALSE,21,60.161595472,NA,"American English","VSH_Exp2","2016_Mar_24_1419",NA
"Recordings/pipi.wav","no","p","p","i","yes","i","pipi","Training","bilabial","TrainingItems",1,51,151,97,NA,NA,NA,NA,NA,NA,NA,NA,NA,NA,120,FALSE,21,60.161595472,NA,"American English","VSH_Exp2","2016_Mar_24_1419",NA
"Recordings/tipi.wav","no","t","p","i","yes","i","tipi","Training","alveolar","TrainingItems",1,52,152,48,NA,NA,NA,NA,NA,NA,NA,NA,NA,NA,120,FALSE,21,60.161595472,NA,"American English","VSH_Exp2","2016_Mar_24_1419",NA
"Recordings/sufa.wav","no","s","f","u","no","a","sufa","Training","alveolar","TrainingItems",1,53,153,27,NA,NA,NA,NA,NA,NA,NA,NA,NA,NA,120,FALSE,21,60.161595472,NA,"American English","VSH_Exp2","2016_Mar_24_1419",NA
"Recordings/babu.wav","yes","b","b","a","yes","u","babu","Training","bilabial","TrainingItems",1,54,154,98,NA,NA,NA,NA,NA,NA,NA,NA,NA,NA,120,FALSE,21,60.161595472,NA,"American English","VSH_Exp2","2016_Mar_24_1419",NA
"Recordings/bidi.wav","yes","b","d","i","yes","i","bidi","Training","bilabial","TrainingItems",1,55,155,20,NA,NA,NA,NA,NA,NA,NA,NA,NA,NA,120,FALSE,21,60.161595472,NA,"American English","VSH_Exp2","2016_Mar_24_1419",NA
"Recordings/sifu.wav","no","s","f","i","no","u","sifu","Training","alveolar","TrainingItems",1,56,156,16,NA,NA,NA,NA,NA,NA,NA,NA,NA,NA,120,FALSE,21,60.161595472,NA,"American English","VSH_Exp2","2016_Mar_24_1419",NA
"Recordings/zazi.wav","yes","z","z","a","no","i","zazi","Training","alveolar","TrainingItems",1,57,157,75,NA,NA,NA,NA,NA,NA,NA,NA,NA,NA,120,FALSE,21,60.161595472,NA,"American English","VSH_Exp2","2016_Mar_24_1419",NA
"Recordings/fasu.wav","no","f","s","a","no","u","fasu","Training","bilabial","TrainingItems",1,58,158,4,NA,NA,NA,NA,NA,NA,NA,NA,NA,NA,120,FALSE,21,60.161595472,NA,"American English","VSH_Exp2","2016_Mar_24_1419",NA
"Recordings/vava.wav","yes","v","v","a","no","a","vava","Training","bilabial","TrainingItems",1,59,159,38,NA,NA,NA,NA,NA,NA,NA,NA,NA,NA,120,FALSE,21,60.161595472,NA,"American English","VSH_Exp2","2016_Mar_24_1419",NA
"Recordings/dibu.wav","yes","d","b","i","yes","u","dibu","Training","alveolar","TrainingItems",1,60,160,82,NA,NA,NA,NA,NA,NA,NA,NA,NA,NA,120,FALSE,21,60.161595472,NA,"American English","VSH_Exp2","2016_Mar_24_1419",NA
"Recordings/sasu.wav","no","s","s","a","no","u","sasu","Training","alveolar","TrainingItems",1,61,161,59,NA,NA,NA,NA,NA,NA,NA,NA,NA,NA,120,FALSE,21,60.161595472,NA,"American English","VSH_Exp2","2016_Mar_24_1419",NA
"Recordings/safa.wav","no","s","f","a","no","a","safa","Training","alveolar","TrainingItems",1,62,162,46,NA,NA,NA,NA,NA,NA,NA,NA,NA,NA,120,FALSE,21,60.161595472,NA,"American English","VSH_Exp2","2016_Mar_24_1419",NA
"Recordings/tati.wav","no","t","t","a","yes","i","tati","Training","alveolar","TrainingItems",1,63,163,5,NA,NA,NA,NA,NA,NA,NA,NA,NA,NA,120,FALSE,21,60.161595472,NA,"American English","VSH_Exp2","2016_Mar_24_1419",NA
"Recordings/pupa.wav","no","p","p","u","yes","a","pupa","Training","bilabial","TrainingItems",1,64,164,94,NA,NA,NA,NA,NA,NA,NA,NA,NA,NA,120,FALSE,21,60.161595472,NA,"American English","VSH_Exp2","2016_Mar_24_1419",NA
"Recordings/safu.wav","no","s","f","a","no","u","safu","Training","alveolar","TrainingItems",1,65,165,85,NA,NA,NA,NA,NA,NA,NA,NA,NA,NA,120,FALSE,21,60.161595472,NA,"American English","VSH_Exp2","2016_Mar_24_1419",NA
"Recordings/sasi.wav","no","s","s","a","no","i","sasi","Training","alveolar","TrainingItems",1,66,166,21,NA,NA,NA,NA,NA,NA,NA,NA,NA,NA,120,FALSE,21,60.161595472,NA,"American English","VSH_Exp2","2016_Mar_24_1419",NA
"Recordings/babi.wav","yes","b","b","a","yes","i","babi","Training","bilabial","TrainingItems",1,67,167,34,NA,NA,NA,NA,NA,NA,NA,NA,NA,NA,120,FALSE,21,60.161595472,NA,"American English","VSH_Exp2","2016_Mar_24_1419",NA
"Recordings/viva.wav","yes","v","v","i","no","a","viva","Training","bilabial","TrainingItems",1,68,168,30,NA,NA,NA,NA,NA,NA,NA,NA,NA,NA,120,FALSE,21,60.161595472,NA,"American English","VSH_Exp2","2016_Mar_24_1419",NA
"Recordings/dibi.wav","yes","d","b","i","yes","i","dibi","Training","alveolar","TrainingItems",1,69,169,67,NA,NA,NA,NA,NA,NA,NA,NA,NA,NA,120,FALSE,21,60.161595472,NA,"American English","VSH_Exp2","2016_Mar_24_1419",NA
"Recordings/vivu.wav","yes","v","v","i","no","u","vivu","Training","bilabial","TrainingItems",1,70,170,61,NA,NA,NA,NA,NA,NA,NA,NA,NA,NA,120,FALSE,21,60.161595472,NA,"American English","VSH_Exp2","2016_Mar_24_1419",NA
"Recordings/tipa.wav","no","t","p","i","yes","a","tipa","Training","alveolar","TrainingItems",1,71,171,19,NA,NA,NA,NA,NA,NA,NA,NA,NA,NA,120,FALSE,21,60.161595472,NA,"American English","VSH_Exp2","2016_Mar_24_1419",NA
"Recordings/tupu.wav","no","t","p","u","yes","u","tupu","Training","alveolar","TrainingItems",1,72,172,13,NA,NA,NA,NA,NA,NA,NA,NA,NA,NA,120,FALSE,21,60.161595472,NA,"American English","VSH_Exp2","2016_Mar_24_1419",NA
"Recordings/dadu.wav","yes","d","d","a","yes","u","dadu","Training","alveolar","TrainingItems",1,73,173,37,NA,NA,NA,NA,NA,NA,NA,NA,NA,NA,120,FALSE,21,60.161595472,NA,"American English","VSH_Exp2","2016_Mar_24_1419",NA
"Recordings/bibu.wav","yes","b","b","i","yes","u","bibu","Training","bilabial","TrainingItems",1,74,174,50,NA,NA,NA,NA,NA,NA,NA,NA,NA,NA,120,FALSE,21,60.161595472,NA,"American English","VSH_Exp2","2016_Mar_24_1419",NA
"Recordings/budu.wav","yes","b","d","u","yes","u","budu","Training","bilabial","TrainingItems",1,75,175,72,NA,NA,NA,NA,NA,NA,NA,NA,NA,NA,120,FALSE,21,60.161595472,NA,"American English","VSH_Exp2","2016_Mar_24_1419",NA
"Recordings/fusi.wav","no","f","s","u","no","i","fusi","Training","bilabial","TrainingItems",1,76,176,88,NA,NA,NA,NA,NA,NA,NA,NA,NA,NA,120,FALSE,21,60.161595472,NA,"American English","VSH_Exp2","2016_Mar_24_1419",NA
"Recordings/ziza.wav","yes","z","z","i","no","a","ziza","Training","alveolar","TrainingItems",1,77,177,91,NA,NA,NA,NA,NA,NA,NA,NA,NA,NA,120,FALSE,21,60.161595472,NA,"American English","VSH_Exp2","2016_Mar_24_1419",NA
"Recordings/fusa.wav","no","f","s","u","no","a","fusa","Training","bilabial","TrainingItems",1,78,178,36,NA,NA,NA,NA,NA,NA,NA,NA,NA,NA,120,FALSE,21,60.161595472,NA,"American English","VSH_Exp2","2016_Mar_24_1419",NA
"Recordings/dabi.wav","yes","d","b","a","yes","i","dabi","Training","alveolar","TrainingItems",1,79,179,2,NA,NA,NA,NA,NA,NA,NA,NA,NA,NA,120,FALSE,21,60.161595472,NA,"American English","VSH_Exp2","2016_Mar_24_1419",NA
"Recordings/patu.wav","no","p","t","a","yes","u","patu","Training","bilabial","TrainingItems",1,80,180,57,NA,NA,NA,NA,NA,NA,NA,NA,NA,NA,120,FALSE,21,60.161595472,NA,"American English","VSH_Exp2","2016_Mar_24_1419",NA
"Recordings/dada.wav","yes","d","d","a","yes","a","dada","Training","alveolar","TrainingItems",1,81,181,99,NA,NA,NA,NA,NA,NA,NA,NA,NA,NA,120,FALSE,21,60.161595472,NA,"American English","VSH_Exp2","2016_Mar_24_1419",NA
"Recordings/badi.wav","yes","b","d","a","yes","i","badi","Training","bilabial","TrainingItems",1,82,182,11,NA,NA,NA,NA,NA,NA,NA,NA,NA,NA,120,FALSE,21,60.161595472,NA,"American English","VSH_Exp2","2016_Mar_24_1419",NA
"Recordings/pupu.wav","no","p","p","u","yes","u","pupu","Training","bilabial","TrainingItems",1,83,183,66,NA,NA,NA,NA,NA,NA,NA,NA,NA,NA,120,FALSE,21,60.161595472,NA,"American English","VSH_Exp2","2016_Mar_24_1419",NA
"Recordings/buda.wav","yes","b","d","u","yes","a","buda","Training","bilabial","TrainingItems",1,84,184,70,NA,NA,NA,NA,NA,NA,NA,NA,NA,NA,120,FALSE,21,60.161595472,NA,"American English","VSH_Exp2","2016_Mar_24_1419",NA
"Recordings/zuzi.wav","yes","z","z","u","no","i","zuzi","Training","alveolar","TrainingItems",1,85,185,81,NA,NA,NA,NA,NA,NA,NA,NA,NA,NA,120,FALSE,21,60.161595472,NA,"American English","VSH_Exp2","2016_Mar_24_1419",NA
"Recordings/pipa.wav","no","p","p","i","yes","a","pipa","Training","bilabial","TrainingItems",1,86,186,25,NA,NA,NA,NA,NA,NA,NA,NA,NA,NA,120,FALSE,21,60.161595472,NA,"American English","VSH_Exp2","2016_Mar_24_1419",NA
"Recordings/pata.wav","no","p","t","a","yes","a","pata","Training","bilabial","TrainingItems",1,87,187,87,NA,NA,NA,NA,NA,NA,NA,NA,NA,NA,120,FALSE,21,60.161595472,NA,"American English","VSH_Exp2","2016_Mar_24_1419",NA
"Recordings/sisa.wav","no","s","s","i","no","a","sisa","Training","alveolar","TrainingItems",1,88,188,14,NA,NA,NA,NA,NA,NA,NA,NA,NA,NA,120,FALSE,21,60.161595472,NA,"American English","VSH_Exp2","2016_Mar_24_1419",NA
"Recordings/dida.wav","yes","d","d","i","yes","a","dida","Training","alveolar","TrainingItems",1,89,189,40,NA,NA,NA,NA,NA,NA,NA,NA,NA,NA,120,FALSE,21,60.161595472,NA,"American English","VSH_Exp2","2016_Mar_24_1419",NA
"Recordings/susu.wav","no","s","s","u","no","u","susu","Training","alveolar","TrainingItems",1,90,190,84,NA,NA,NA,NA,NA,NA,NA,NA,NA,NA,120,FALSE,21,60.161595472,NA,"American English","VSH_Exp2","2016_Mar_24_1419",NA
"Recordings/fufa.wav","no","f","f","u","no","a","fufa","Training","bilabial","TrainingItems",1,91,191,96,NA,NA,NA,NA,NA,NA,NA,NA,NA,NA,120,FALSE,21,60.161595472,NA,"American English","VSH_Exp2","2016_Mar_24_1419",NA
"Recordings/sufu.wav","no","s","f","u","no","u","sufu","Training","alveolar","TrainingItems",1,92,192,42,NA,NA,NA,NA,NA,NA,NA,NA,NA,NA,120,FALSE,21,60.161595472,NA,"American English","VSH_Exp2","2016_Mar_24_1419",NA
"Recordings/budi.wav","yes","b","d","u","yes","i","budi","Training","bilabial","TrainingItems",1,93,193,86,NA,NA,NA,NA,NA,NA,NA,NA,NA,NA,120,FALSE,21,60.161595472,NA,"American English","VSH_Exp2","2016_Mar_24_1419",NA
"Recordings/tapu.wav","no","t","p","a","yes","u","tapu","Training","alveolar","TrainingItems",1,94,194,52,NA,NA,NA,NA,NA,NA,NA,NA,NA,NA,120,FALSE,21,60.161595472,NA,"American English","VSH_Exp2","2016_Mar_24_1419",NA
"Recordings/pipu.wav","no","p","p","i","yes","u","pipu","Training","bilabial","TrainingItems",1,95,195,69,NA,NA,NA,NA,NA,NA,NA,NA,NA,NA,120,FALSE,21,60.161595472,NA,"American English","VSH_Exp2","2016_Mar_24_1419",NA
"Recordings/bubi.wav","yes","b","b","u","yes","i","bubi","Training","bilabial","TrainingItems",1,96,196,47,NA,NA,NA,NA,NA,NA,NA,NA,NA,NA,120,FALSE,21,60.161595472,NA,"American English","VSH_Exp2","2016_Mar_24_1419",NA
"Recordings/sisi.wav","no","s","s","i","no","i","sisi","Training","alveolar","TrainingItems",1,97,197,24,NA,NA,NA,NA,NA,NA,NA,NA,NA,NA,120,FALSE,21,60.161595472,NA,"American English","VSH_Exp2","2016_Mar_24_1419",NA
"Recordings/vuvi.wav","yes","v","v","u","no","i","vuvi","Training","bilabial","TrainingItems",1,98,198,43,NA,NA,NA,NA,NA,NA,NA,NA,NA,NA,120,FALSE,21,60.161595472,NA,"American English","VSH_Exp2","2016_Mar_24_1419",NA
"Recordings/baba.wav","yes","b","b","a","yes","a","baba","Training","bilabial","TrainingItems",1,99,199,58,NA,NA,NA,NA,NA,NA,NA,NA,NA,NA,120,FALSE,21,60.161595472,NA,"American English","VSH_Exp2","2016_Mar_24_1419",NA
NA,NA,NA,NA,NA,NA,NA,NA,NA,NA,NA,NA,NA,NA,NA,NA,NA,NA,NA,NA,NA,"space",4.25516891479,NA,NA,120,FALSE,21,60.161595472,NA,"American English","VSH_Exp2","2016_Mar_24_1419",NA
"Recordings/pusu.wav","no","p","s","u","yes","u","pusu","Controls","bilabial","VoicingControls",NA,NA,NA,NA,0,0,0,43,NA,NA,NA,NA,"No",6.593,120,FALSE,21,60.161595472,NA,"American English","VSH_Exp2","2016_Mar_24_1419",NA
"Recordings/pusa.wav","no","p","s","u","yes","a","pusa","Controls","bilabial","VoicingControls",NA,NA,NA,NA,0,1,1,41,NA,NA,NA,NA,"Yes",5.341,120,FALSE,21,60.161595472,NA,"American English","VSH_Exp2","2016_Mar_24_1419",NA
"Recordings/vaza.wav","yes","v","z","a","no","a","vaza","Test","bilabial","NewConsTestStimuli",NA,NA,NA,NA,0,2,2,12,NA,NA,NA,NA,"Yes",1.204,120,FALSE,21,60.161595472,NA,"American English","VSH_Exp2","2016_Mar_24_1419",NA
"Recordings/fufi.wav","no","f","f","u","no","i","fufi","Test","bilabial","OldTestStimuli",NA,NA,NA,NA,0,3,3,9,NA,NA,NA,NA,"Yes",1.288,120,FALSE,21,60.161595472,NA,"American English","VSH_Exp2","2016_Mar_24_1419",NA
"Recordings/diba.wav","yes","d","b","i","yes","a","diba","Test","alveolar","NewWordTestStimuli",NA,NA,NA,NA,0,4,4,20,NA,NA,NA,NA,"No",6.927,120,FALSE,21,60.161595472,NA,"American English","VSH_Exp2","2016_Mar_24_1419",NA
"Recordings/duba.wav","yes","d","b","u","yes","a","duba","Test","alveolar","NewWordTestStimuli",NA,NA,NA,NA,0,5,5,22,NA,NA,NA,NA,"Yes",2.688,120,FALSE,21,60.161595472,NA,"American English","VSH_Exp2","2016_Mar_24_1419",NA
"Recordings/suti.wav","no","s","t","u","no","i","suti","Controls","alveolar","VoicingControls",NA,NA,NA,NA,0,6,6,49,NA,NA,NA,NA,"No",2.706,120,FALSE,21,60.161595472,NA,"American English","VSH_Exp2","2016_Mar_24_1419",NA
"Recordings/zubu.wav","yes","z","b","u","no","u","zubu","Controls","alveolar","VoicingControls",NA,NA,NA,NA,0,7,7,48,NA,NA,NA,NA,"Yes",1.621,120,FALSE,21,60.161595472,NA,"American English","VSH_Exp2","2016_Mar_24_1419",NA
"Recordings/buza.wav","yes","b","z","u","yes","a","buza","Controls","bilabial","VoicingControls",NA,NA,NA,NA,0,8,8,40,NA,NA,NA,NA,"No",1.921,120,FALSE,21,60.161595472,NA,"American English","VSH_Exp2","2016_Mar_24_1419",NA
"Recordings/dafi.wav","yes","d","f","a","yes","i","dafi","Controls","alveolar","NoPatternControls",NA,NA,NA,NA,0,9,9,52,NA,NA,NA,NA,"No",1.821,120,FALSE,21,60.161595472,NA,"American English","VSH_Exp2","2016_Mar_24_1419",NA
"Recordings/badi.wav","yes","b","d","a","yes","i","badi","Test","bilabial","OldTestStimuli",NA,NA,NA,NA,0,10,10,0,NA,NA,NA,NA,"Yes",1.621,120,FALSE,21,60.161595472,NA,"American English","VSH_Exp2","2016_Mar_24_1419",NA
"Recordings/tuti.wav","no","t","t","u","yes","i","tuti","Test","alveolar","OldTestStimuli",NA,NA,NA,NA,0,11,11,3,NA,NA,NA,NA,"Yes",1.403,120,FALSE,21,60.161595472,NA,"American English","VSH_Exp2","2016_Mar_24_1419",NA
"Recordings/vita.wav","yes","v","t","i","no","a","vita","Controls","bilabial","NoPatternControls",NA,NA,NA,NA,0,12,12,55,NA,NA,NA,NA,"No",1.805,120,FALSE,21,60.161595472,NA,"American English","VSH_Exp2","2016_Mar_24_1419",NA
"Recordings/visu.wav","yes","v","s","i","no","u","visu","Controls","bilabial","StopControls",NA,NA,NA,NA,0,13,13,36,NA,NA,NA,NA,"Yes",2.505,120,FALSE,21,60.161595472,NA,"American English","VSH_Exp2","2016_Mar_24_1419",NA
"Recordings/bisa.wav","yes","b","s","i","yes","a","bisa","Controls","bilabial","NoPatternControls",NA,NA,NA,NA,0,14,14,50,NA,NA,NA,NA,"No",1.67,120,FALSE,21,60.161595472,NA,"American English","VSH_Exp2","2016_Mar_24_1419",NA
"Recordings/zipu.wav","yes","z","p","i","no","u","zipu","Controls","alveolar","NoPatternControls",NA,NA,NA,NA,0,15,15,58,NA,NA,NA,NA,"No",2.355,120,FALSE,21,60.161595472,NA,"American English","VSH_Exp2","2016_Mar_24_1419",NA
"Recordings/suza.wav","no","s","z","u","no","a","suza","Controls","alveolar","StopControls",NA,NA,NA,NA,0,16,16,39,NA,NA,NA,NA,"Yes",3.438,120,FALSE,21,60.161595472,NA,"American English","VSH_Exp2","2016_Mar_24_1419",NA
"Recordings/puda.wav","no","p","d","u","yes","a","puda","Controls","bilabial","StopControls",NA,NA,NA,NA,0,17,17,31,NA,NA,NA,NA,"Yes",1.888,120,FALSE,21,60.161595472,NA,"American English","VSH_Exp2","2016_Mar_24_1419",NA
"Recordings/dupi.wav","yes","d","p","u","yes","i","dupi","Controls","alveolar","StopControls",NA,NA,NA,NA,0,18,18,32,NA,NA,NA,NA,"Yes",1.237,120,FALSE,21,60.161595472,NA,"American English","VSH_Exp2","2016_Mar_24_1419",NA
"Recordings/vazi.wav","yes","v","z","a","no","i","vazi","Test","bilabial","NewConsTestStimuli",NA,NA,NA,NA,0,19,19,10,NA,NA,NA,NA,"Yes",2.722,120,FALSE,21,60.161595472,NA,"American English","VSH_Exp2","2016_Mar_24_1419",NA
"Recordings/vidu.wav","yes","v","d","i","no","u","vidu","Controls","bilabial","VoicingControls",NA,NA,NA,NA,0,20,20,46,NA,NA,NA,NA,"No",2.854,120,FALSE,21,60.161595472,NA,"American English","VSH_Exp2","2016_Mar_24_1419",NA
"Recordings/duvi.wav","yes","d","v","u","yes","i","duvi","Controls","alveolar","VoicingControls",NA,NA,NA,NA,0,21,21,42,NA,NA,NA,NA,"Yes",1.939,120,FALSE,21,60.161595472,NA,"American English","VSH_Exp2","2016_Mar_24_1419",NA
"Recordings/pisa.wav","no","p","s","i","yes","a","pisa","Controls","bilabial","VoicingControls",NA,NA,NA,NA,0,22,22,44,NA,NA,NA,NA,"Yes",1.536,120,FALSE,21,60.161595472,NA,"American English","VSH_Exp2","2016_Mar_24_1419",NA
"Recordings/tutu.wav","no","t","t","u","yes","u","tutu","Test","alveolar","NewWordTestStimuli",NA,NA,NA,NA,0,23,23,29,NA,NA,NA,NA,"Yes",1.27,120,FALSE,21,60.161595472,NA,"American English","VSH_Exp2","2016_Mar_24_1419",NA
"Recordings/bibu.wav","yes","b","b","i","yes","u","bibu","Test","bilabial","OldTestStimuli",NA,NA,NA,NA,0,24,24,7,NA,NA,NA,NA,"Yes",0.886,120,FALSE,21,60.161595472,NA,"American English","VSH_Exp2","2016_Mar_24_1419",NA
"Recordings/pudu.wav","no","p","d","u","yes","u","pudu","Controls","bilabial","StopControls",NA,NA,NA,NA,0,25,25,33,NA,NA,NA,NA,"Yes",2.355,120,FALSE,21,60.161595472,NA,"American English","VSH_Exp2","2016_Mar_24_1419",NA
"Recordings/putu.wav","no","p","t","u","yes","u","putu","Test","bilabial","NewWordTestStimuli",NA,NA,NA,NA,0,26,26,21,NA,NA,NA,NA,"Yes",1.504,120,FALSE,21,60.161595472,NA,"American English","VSH_Exp2","2016_Mar_24_1419",NA
"Recordings/vafi.wav","yes","v","f","a","no","i","vafi","Controls","bilabial","StopControls",NA,NA,NA,NA,0,27,27,35,NA,NA,NA,NA,"No",1.621,120,FALSE,21,60.161595472,NA,"American English","VSH_Exp2","2016_Mar_24_1419",NA
"Recordings/tapa.wav","no","t","p","a","yes","a","tapa","Test","alveolar","NewWordTestStimuli",NA,NA,NA,NA,0,28,28,27,NA,NA,NA,NA,"No",3.557,120,FALSE,21,60.161595472,NA,"American English","VSH_Exp2","2016_Mar_24_1419",NA
"Recordings/piva.wav","no","p","v","i","yes","a","piva","Controls","bilabial","NoPatternControls",NA,NA,NA,NA,0,29,29,53,NA,NA,NA,NA,"No",0.887,120,FALSE,21,60.161595472,NA,"American English","VSH_Exp2","2016_Mar_24_1419",NA
"Recordings/puvi.wav","no","p","v","u","yes","i","puvi","Controls","bilabial","NoPatternControls",NA,NA,NA,NA,0,30,30,51,NA,NA,NA,NA,"No",1.787,120,FALSE,21,60.161595472,NA,"American English","VSH_Exp2","2016_Mar_24_1419",NA
"Recordings/zavi.wav","yes","z","v","a","no","i","zavi","Test","alveolar","NewConsTestStimuli",NA,NA,NA,NA,0,31,31,16,NA,NA,NA,NA,"Yes",1.703,120,FALSE,21,60.161595472,NA,"American English","VSH_Exp2","2016_Mar_24_1419",NA
"Recordings/zivi.wav","yes","z","v","i","no","i","zivi","Test","alveolar","NewConsTestStimuli",NA,NA,NA,NA,0,32,32,17,NA,NA,NA,NA,"Yes",1.304,120,FALSE,21,60.161595472,NA,"American English","VSH_Exp2","2016_Mar_24_1419",NA
"Recordings/viza.wav","yes","v","z","i","no","a","viza","Test","bilabial","NewConsTestStimuli",NA,NA,NA,NA,0,33,33,18,NA,NA,NA,NA,"No",3.238,120,FALSE,21,60.161595472,NA,"American English","VSH_Exp2","2016_Mar_24_1419",NA
"Recordings/safu.wav","no","s","f","a","no","u","safu","Test","alveolar","OldTestStimuli",NA,NA,NA,NA,0,34,34,6,NA,NA,NA,NA,"Yes",2.322,120,FALSE,21,60.161595472,NA,"American English","VSH_Exp2","2016_Mar_24_1419",NA
"Recordings/pazu.wav","no","p","z","a","yes","u","pazu","Controls","bilabial","NoPatternControls",NA,NA,NA,NA,0,35,35,54,NA,NA,NA,NA,"Yes",1.437,120,FALSE,21,60.161595472,NA,"American English","VSH_Exp2","2016_Mar_24_1419",NA
"Recordings/suvu.wav","no","s","v","u","no","u","suvu","Controls","alveolar","StopControls",NA,NA,NA,NA,0,36,36,37,NA,NA,NA,NA,"No",2.371,120,FALSE,21,60.161595472,NA,"American English","VSH_Exp2","2016_Mar_24_1419",NA
"Recordings/buta.wav","yes","b","t","u","yes","a","buta","Controls","bilabial","StopControls",NA,NA,NA,NA,0,37,37,30,NA,NA,NA,NA,"Yes",1.687,120,FALSE,21,60.161595472,NA,"American English","VSH_Exp2","2016_Mar_24_1419",NA
"Recordings/vuzi.wav","yes","v","z","u","no","i","vuzi","Test","bilabial","NewConsTestStimuli",NA,NA,NA,NA,0,38,38,11,NA,NA,NA,NA,"Yes",1.371,120,FALSE,21,60.161595472,NA,"American English","VSH_Exp2","2016_Mar_24_1419",NA
"Recordings/pupi.wav","no","p","p","u","yes","i","pupi","Test","bilabial","OldTestStimuli",NA,NA,NA,NA,0,39,39,8,NA,NA,NA,NA,"Yes",1.087,120,FALSE,21,60.161595472,NA,"American English","VSH_Exp2","2016_Mar_24_1419",NA
"Recordings/ziva.wav","yes","z","v","i","no","a","ziva","Test","alveolar","NewConsTestStimuli",NA,NA,NA,NA,0,40,40,19,NA,NA,NA,NA,"No",1.588,120,FALSE,21,60.161595472,NA,"American English","VSH_Exp2","2016_Mar_24_1419",NA
"Recordings/susi.wav","no","s","s","u","no","i","susi","Test","alveolar","OldTestStimuli",NA,NA,NA,NA,0,41,41,2,NA,NA,NA,NA,"No",2.171,120,FALSE,21,60.161595472,NA,"American English","VSH_Exp2","2016_Mar_24_1419",NA
"Recordings/fafa.wav","no","f","f","a","no","a","fafa","Test","bilabial","NewWordTestStimuli",NA,NA,NA,NA,0,42,42,24,NA,NA,NA,NA,"Yes",1.704,120,FALSE,21,60.161595472,NA,"American English","VSH_Exp2","2016_Mar_24_1419",NA
"Recordings/suta.wav","no","s","t","u","no","a","suta","Controls","alveolar","VoicingControls",NA,NA,NA,NA,0,43,43,47,NA,NA,NA,NA,"No",2.121,120,FALSE,21,60.161595472,NA,"American English","VSH_Exp2","2016_Mar_24_1419",NA
"Recordings/tuta.wav","no","t","t","u","yes","a","tuta","Test","alveolar","NewWordTestStimuli",NA,NA,NA,NA,0,44,44,26,NA,NA,NA,NA,"No",1.253,120,FALSE,21,60.161595472,NA,"American English","VSH_Exp2","2016_Mar_24_1419",NA
"Recordings/fafu.wav","no","f","f","a","no","u","fafu","Test","bilabial","OldTestStimuli",NA,NA,NA,NA,0,45,45,4,NA,NA,NA,NA,"Yes",2.588,120,FALSE,21,60.161595472,NA,"American English","VSH_Exp2","2016_Mar_24_1419",NA
"Recordings/zavu.wav","yes","z","v","a","no","u","zavu","Test","alveolar","NewConsTestStimuli",NA,NA,NA,NA,0,46,46,15,NA,NA,NA,NA,"No",1.639,120,FALSE,21,60.161595472,NA,"American English","VSH_Exp2","2016_Mar_24_1419",NA
"Recordings/pida.wav","no","p","d","i","yes","a","pida","Controls","bilabial","StopControls",NA,NA,NA,NA,0,47,47,34,NA,NA,NA,NA,"Yes",1.088,120,FALSE,21,60.161595472,NA,"American English","VSH_Exp2","2016_Mar_24_1419",NA
"Recordings/zufu.wav","yes","z","f","u","no","u","zufu","Controls","alveolar","StopControls",NA,NA,NA,NA,0,48,48,38,NA,NA,NA,NA,"No",2.071,120,FALSE,21,60.161595472,NA,"American English","VSH_Exp2","2016_Mar_24_1419",NA
"Recordings/vizi.wav","yes","v","z","i","no","i","vizi","Test","bilabial","NewConsTestStimuli",NA,NA,NA,NA,0,49,49,14,NA,NA,NA,NA,"No",0.87,120,FALSE,21,60.161595472,NA,"American English","VSH_Exp2","2016_Mar_24_1419",NA
"Recordings/zuzi.wav","yes","z","z","u","no","i","zuzi","Test","alveolar","OldTestStimuli",NA,NA,NA,NA,0,50,50,5,NA,NA,NA,NA,"No",1.537,120,FALSE,21,60.161595472,NA,"American English","VSH_Exp2","2016_Mar_24_1419",NA
"Recordings/vabi.wav","yes","v","b","a","no","i","vabi","Controls","bilabial","VoicingControls",NA,NA,NA,NA,0,51,51,45,NA,NA,NA,NA,"Yes",1.855,120,FALSE,21,60.161595472,NA,"American English","VSH_Exp2","2016_Mar_24_1419",NA
"Recordings/titi.wav","no","t","t","i","yes","i","titi","Test","alveolar","NewWordTestStimuli",NA,NA,NA,NA,0,52,52,25,NA,NA,NA,NA,"Yes",1.204,120,FALSE,21,60.161595472,NA,"American English","VSH_Exp2","2016_Mar_24_1419",NA
"Recordings/zuvi.wav","yes","z","v","u","no","i","zuvi","Test","alveolar","NewConsTestStimuli",NA,NA,NA,NA,0,53,53,13,NA,NA,NA,NA,"No",1.654,120,FALSE,21,60.161595472,NA,"American English","VSH_Exp2","2016_Mar_24_1419",NA
"Recordings/fisu.wav","no","f","s","i","no","u","fisu","Test","bilabial","NewWordTestStimuli",NA,NA,NA,NA,0,54,54,28,NA,NA,NA,NA,"Yes",1.87,120,FALSE,21,60.161595472,NA,"American English","VSH_Exp2","2016_Mar_24_1419",NA
"Recordings/sabi.wav","no","s","b","a","no","i","sabi","Controls","alveolar","NoPatternControls",NA,NA,NA,NA,0,55,55,57,NA,NA,NA,NA,"No",2.339,120,FALSE,21,60.161595472,NA,"American English","VSH_Exp2","2016_Mar_24_1419",NA
"Recordings/vuvi.wav","yes","v","v","u","no","i","vuvi","Test","bilabial","OldTestStimuli",NA,NA,NA,NA,0,56,56,1,NA,NA,NA,NA,"Yes",1.355,120,FALSE,21,60.161595472,NA,"American English","VSH_Exp2","2016_Mar_24_1419",NA
"Recordings/vupu.wav","yes","v","p","u","no","u","vupu","Controls","bilabial","NoPatternControls",NA,NA,NA,NA,0,57,57,56,NA,NA,NA,NA,"No",1.505,120,FALSE,21,60.161595472,NA,"American English","VSH_Exp2","2016_Mar_24_1419",NA
"Recordings/fusu.wav","no","f","s","u","no","u","fusu","Test","bilabial","NewWordTestStimuli",NA,NA,NA,NA,0,58,58,23,NA,NA,NA,NA,"Yes",3.188,120,FALSE,21,60.161595472,NA,"American English","VSH_Exp2","2016_Mar_24_1419",NA
"Recordings/sidu.wav","no","s","d","i","no","u","sidu","Controls","alveolar","NoPatternControls",NA,NA,NA,NA,0,59,59,59,NA,NA,NA,NA,"Yes",4.09,120,FALSE,21,60.161595472,NA,"American English","VSH_Exp2","2016_Mar_24_1419",NA
