"SOUND","VOICING","SEGMENT","SEGMENT3","SEGMENT2","STOP","SEGMENT4","STIMULUS","GENERAL_TYPE","PLACE","TYPE","trials.thisRepN","trials.thisTrialN","trials.thisN","trials.thisIndex","trials_2.thisRepN","trials_2.thisTrialN","trials_2.thisN","trials_2.thisIndex","SpaceBar.keys","SpaceBar.rt","key_resp_2.keys","key_resp_2.rt","rating.response","rating.rt","participant","Gender","Age","frameRate","OtherLanguages","NativeLanguage","expName","date","X34"
NA,NA,NA,NA,NA,NA,NA,NA,NA,NA,NA,NA,NA,NA,NA,NA,NA,NA,NA,"space",2.0701110363,NA,NA,NA,NA,123,"M",21,60.9681517552,NA,"American English","VSH_Exp2","2016_Mar_24_1419",NA
"Recordings/tuta.wav","no","t","t","u","yes","a","tuta","Training","alveolar","TrainingItems",0,0,0,81,NA,NA,NA,NA,NA,NA,NA,NA,NA,NA,123,"M",21,60.9681517552,NA,"American English","VSH_Exp2","2016_Mar_24_1419",NA
"Recordings/dabu.wav","yes","d","b","a","yes","u","dabu","Training","alveolar","TrainingItems",0,1,1,5,NA,NA,NA,NA,NA,NA,NA,NA,NA,NA,123,"M",21,60.9681517552,NA,"American English","VSH_Exp2","2016_Mar_24_1419",NA
"Recordings/zavu.wav","yes","z","v","a","no","u","zavu","Training","alveolar","TrainingItems",0,2,2,41,NA,NA,NA,NA,NA,NA,NA,NA,NA,NA,123,"M",21,60.9681517552,NA,"American English","VSH_Exp2","2016_Mar_24_1419",NA
"Recordings/zizu.wav","yes","z","z","i","no","u","zizu","Training","alveolar","TrainingItems",0,3,3,29,NA,NA,NA,NA,NA,NA,NA,NA,NA,NA,123,"M",21,60.9681517552,NA,"American English","VSH_Exp2","2016_Mar_24_1419",NA
"Recordings/putu.wav","no","p","t","u","yes","u","putu","Training","bilabial","TrainingItems",0,4,4,24,NA,NA,NA,NA,NA,NA,NA,NA,NA,NA,123,"M",21,60.9681517552,NA,"American English","VSH_Exp2","2016_Mar_24_1419",NA
"Recordings/duda.wav","yes","d","d","u","yes","a","duda","Training","alveolar","TrainingItems",0,5,5,7,NA,NA,NA,NA,NA,NA,NA,NA,NA,NA,123,"M",21,60.9681517552,NA,"American English","VSH_Exp2","2016_Mar_24_1419",NA
"Recordings/vavi.wav","yes","v","v","a","no","i","vavi","Training","bilabial","TrainingItems",0,6,6,4,NA,NA,NA,NA,NA,NA,NA,NA,NA,NA,123,"M",21,60.9681517552,NA,"American English","VSH_Exp2","2016_Mar_24_1419",NA
"Recordings/vuza.wav","yes","v","z","u","no","a","vuza","Training","bilabial","TrainingItems",0,7,7,1,NA,NA,NA,NA,NA,NA,NA,NA,NA,NA,123,"M",21,60.9681517552,NA,"American English","VSH_Exp2","2016_Mar_24_1419",NA
"Recordings/fufu.wav","no","f","f","u","no","u","fufu","Training","bilabial","TrainingItems",0,8,8,3,NA,NA,NA,NA,NA,NA,NA,NA,NA,NA,123,"M",21,60.9681517552,NA,"American English","VSH_Exp2","2016_Mar_24_1419",NA
"Recordings/vaza.wav","yes","v","z","a","no","a","vaza","Training","bilabial","TrainingItems",0,9,9,36,NA,NA,NA,NA,NA,NA,NA,NA,NA,NA,123,"M",21,60.9681517552,NA,"American English","VSH_Exp2","2016_Mar_24_1419",NA
"Recordings/tapi.wav","no","t","p","a","yes","i","tapi","Training","alveolar","TrainingItems",0,10,10,74,NA,NA,NA,NA,NA,NA,NA,NA,NA,NA,123,"M",21,60.9681517552,NA,"American English","VSH_Exp2","2016_Mar_24_1419",NA
"Recordings/dadu.wav","yes","d","d","a","yes","u","dadu","Training","alveolar","TrainingItems",0,11,11,67,NA,NA,NA,NA,NA,NA,NA,NA,NA,NA,123,"M",21,60.9681517552,NA,"American English","VSH_Exp2","2016_Mar_24_1419",NA
"Recordings/bubi.wav","yes","b","b","u","yes","i","bubi","Training","bilabial","TrainingItems",0,12,12,55,NA,NA,NA,NA,NA,NA,NA,NA,NA,NA,123,"M",21,60.9681517552,NA,"American English","VSH_Exp2","2016_Mar_24_1419",NA
"Recordings/vizu.wav","yes","v","z","i","no","u","vizu","Training","bilabial","TrainingItems",0,13,13,91,NA,NA,NA,NA,NA,NA,NA,NA,NA,NA,123,"M",21,60.9681517552,NA,"American English","VSH_Exp2","2016_Mar_24_1419",NA
"Recordings/vavu.wav","yes","v","v","a","no","u","vavu","Training","bilabial","TrainingItems",0,14,14,70,NA,NA,NA,NA,NA,NA,NA,NA,NA,NA,123,"M",21,60.9681517552,NA,"American English","VSH_Exp2","2016_Mar_24_1419",NA
"Recordings/zavi.wav","yes","z","v","a","no","i","zavi","Training","alveolar","TrainingItems",0,15,15,27,NA,NA,NA,NA,NA,NA,NA,NA,NA,NA,123,"M",21,60.9681517552,NA,"American English","VSH_Exp2","2016_Mar_24_1419",NA
"Recordings/budi.wav","yes","b","d","u","yes","i","budi","Training","bilabial","TrainingItems",0,16,16,90,NA,NA,NA,NA,NA,NA,NA,NA,NA,NA,123,"M",21,60.9681517552,NA,"American English","VSH_Exp2","2016_Mar_24_1419",NA
"Recordings/pupu.wav","no","p","p","u","yes","u","pupu","Training","bilabial","TrainingItems",0,17,17,18,NA,NA,NA,NA,NA,NA,NA,NA,NA,NA,123,"M",21,60.9681517552,NA,"American English","VSH_Exp2","2016_Mar_24_1419",NA
"Recordings/ziza.wav","yes","z","z","i","no","a","ziza","Training","alveolar","TrainingItems",0,18,18,52,NA,NA,NA,NA,NA,NA,NA,NA,NA,NA,123,"M",21,60.9681517552,NA,"American English","VSH_Exp2","2016_Mar_24_1419",NA
"Recordings/sasa.wav","no","s","s","a","no","a","sasa","Training","alveolar","TrainingItems",0,19,19,84,NA,NA,NA,NA,NA,NA,NA,NA,NA,NA,123,"M",21,60.9681517552,NA,"American English","VSH_Exp2","2016_Mar_24_1419",NA
"Recordings/susi.wav","no","s","s","u","no","i","susi","Training","alveolar","TrainingItems",0,20,20,62,NA,NA,NA,NA,NA,NA,NA,NA,NA,NA,123,"M",21,60.9681517552,NA,"American English","VSH_Exp2","2016_Mar_24_1419",NA
"Recordings/patu.wav","no","p","t","a","yes","u","patu","Training","bilabial","TrainingItems",0,21,21,49,NA,NA,NA,NA,NA,NA,NA,NA,NA,NA,123,"M",21,60.9681517552,NA,"American English","VSH_Exp2","2016_Mar_24_1419",NA
"Recordings/badi.wav","yes","b","d","a","yes","i","badi","Training","bilabial","TrainingItems",0,22,22,73,NA,NA,NA,NA,NA,NA,NA,NA,NA,NA,123,"M",21,60.9681517552,NA,"American English","VSH_Exp2","2016_Mar_24_1419",NA
"Recordings/vuzi.wav","yes","v","z","u","no","i","vuzi","Training","bilabial","TrainingItems",0,23,23,79,NA,NA,NA,NA,NA,NA,NA,NA,NA,NA,123,"M",21,60.9681517552,NA,"American English","VSH_Exp2","2016_Mar_24_1419",NA
"Recordings/zuza.wav","yes","z","z","u","no","a","zuza","Training","alveolar","TrainingItems",0,24,24,34,NA,NA,NA,NA,NA,NA,NA,NA,NA,NA,123,"M",21,60.9681517552,NA,"American English","VSH_Exp2","2016_Mar_24_1419",NA
"Recordings/tupi.wav","no","t","p","u","yes","i","tupi","Training","alveolar","TrainingItems",0,25,25,22,NA,NA,NA,NA,NA,NA,NA,NA,NA,NA,123,"M",21,60.9681517552,NA,"American English","VSH_Exp2","2016_Mar_24_1419",NA
"Recordings/bibu.wav","yes","b","b","i","yes","u","bibu","Training","bilabial","TrainingItems",0,26,26,9,NA,NA,NA,NA,NA,NA,NA,NA,NA,NA,123,"M",21,60.9681517552,NA,"American English","VSH_Exp2","2016_Mar_24_1419",NA
"Recordings/babi.wav","yes","b","b","a","yes","i","babi","Training","bilabial","TrainingItems",0,27,27,6,NA,NA,NA,NA,NA,NA,NA,NA,NA,NA,123,"M",21,60.9681517552,NA,"American English","VSH_Exp2","2016_Mar_24_1419",NA
"Recordings/bubu.wav","yes","b","b","u","yes","u","bubu","Training","bilabial","TrainingItems",0,28,28,32,NA,NA,NA,NA,NA,NA,NA,NA,NA,NA,123,"M",21,60.9681517552,NA,"American English","VSH_Exp2","2016_Mar_24_1419",NA
"Recordings/zivu.wav","yes","z","v","i","no","u","zivu","Training","alveolar","TrainingItems",0,29,29,75,NA,NA,NA,NA,NA,NA,NA,NA,NA,NA,123,"M",21,60.9681517552,NA,"American English","VSH_Exp2","2016_Mar_24_1419",NA
"Recordings/zaza.wav","yes","z","z","a","no","a","zaza","Training","alveolar","TrainingItems",0,30,30,51,NA,NA,NA,NA,NA,NA,NA,NA,NA,NA,123,"M",21,60.9681517552,NA,"American English","VSH_Exp2","2016_Mar_24_1419",NA
"Recordings/puta.wav","no","p","t","u","yes","a","puta","Training","bilabial","TrainingItems",0,31,31,15,NA,NA,NA,NA,NA,NA,NA,NA,NA,NA,123,"M",21,60.9681517552,NA,"American English","VSH_Exp2","2016_Mar_24_1419",NA
"Recordings/zazi.wav","yes","z","z","a","no","i","zazi","Training","alveolar","TrainingItems",0,32,32,47,NA,NA,NA,NA,NA,NA,NA,NA,NA,NA,123,"M",21,60.9681517552,NA,"American English","VSH_Exp2","2016_Mar_24_1419",NA
"Recordings/budu.wav","yes","b","d","u","yes","u","budu","Training","bilabial","TrainingItems",0,33,33,97,NA,NA,NA,NA,NA,NA,NA,NA,NA,NA,123,"M",21,60.9681517552,NA,"American English","VSH_Exp2","2016_Mar_24_1419",NA
"Recordings/viza.wav","yes","v","z","i","no","a","viza","Training","bilabial","TrainingItems",0,34,34,89,NA,NA,NA,NA,NA,NA,NA,NA,NA,NA,123,"M",21,60.9681517552,NA,"American English","VSH_Exp2","2016_Mar_24_1419",NA
"Recordings/puti.wav","no","p","t","u","yes","i","puti","Training","bilabial","TrainingItems",0,35,35,54,NA,NA,NA,NA,NA,NA,NA,NA,NA,NA,123,"M",21,60.9681517552,NA,"American English","VSH_Exp2","2016_Mar_24_1419",NA
"Recordings/vazu.wav","yes","v","z","a","no","u","vazu","Training","bilabial","TrainingItems",0,36,36,93,NA,NA,NA,NA,NA,NA,NA,NA,NA,NA,123,"M",21,60.9681517552,NA,"American English","VSH_Exp2","2016_Mar_24_1419",NA
"Recordings/dabi.wav","yes","d","b","a","yes","i","dabi","Training","alveolar","TrainingItems",0,37,37,66,NA,NA,NA,NA,NA,NA,NA,NA,NA,NA,123,"M",21,60.9681517552,NA,"American English","VSH_Exp2","2016_Mar_24_1419",NA
"Recordings/dada.wav","yes","d","d","a","yes","a","dada","Training","alveolar","TrainingItems",0,38,38,19,NA,NA,NA,NA,NA,NA,NA,NA,NA,NA,123,"M",21,60.9681517552,NA,"American English","VSH_Exp2","2016_Mar_24_1419",NA
"Recordings/pita.wav","no","p","t","i","yes","a","pita","Training","bilabial","TrainingItems",0,39,39,40,NA,NA,NA,NA,NA,NA,NA,NA,NA,NA,123,"M",21,60.9681517552,NA,"American English","VSH_Exp2","2016_Mar_24_1419",NA
"Recordings/dubi.wav","yes","d","b","u","yes","i","dubi","Training","alveolar","TrainingItems",0,40,40,38,NA,NA,NA,NA,NA,NA,NA,NA,NA,NA,123,"M",21,60.9681517552,NA,"American English","VSH_Exp2","2016_Mar_24_1419",NA
"Recordings/sasu.wav","no","s","s","a","no","u","sasu","Training","alveolar","TrainingItems",0,41,41,33,NA,NA,NA,NA,NA,NA,NA,NA,NA,NA,123,"M",21,60.9681517552,NA,"American English","VSH_Exp2","2016_Mar_24_1419",NA
"Recordings/bidi.wav","yes","b","d","i","yes","i","bidi","Training","bilabial","TrainingItems",0,42,42,53,NA,NA,NA,NA,NA,NA,NA,NA,NA,NA,123,"M",21,60.9681517552,NA,"American English","VSH_Exp2","2016_Mar_24_1419",NA
"Recordings/tapu.wav","no","t","p","a","yes","u","tapu","Training","alveolar","TrainingItems",0,43,43,85,NA,NA,NA,NA,NA,NA,NA,NA,NA,NA,123,"M",21,60.9681517552,NA,"American English","VSH_Exp2","2016_Mar_24_1419",NA
"Recordings/dibu.wav","yes","d","b","i","yes","u","dibu","Training","alveolar","TrainingItems",0,44,44,30,NA,NA,NA,NA,NA,NA,NA,NA,NA,NA,123,"M",21,60.9681517552,NA,"American English","VSH_Exp2","2016_Mar_24_1419",NA
"Recordings/vuvu.wav","yes","v","v","u","no","u","vuvu","Training","bilabial","TrainingItems",0,45,45,92,NA,NA,NA,NA,NA,NA,NA,NA,NA,NA,123,"M",21,60.9681517552,NA,"American English","VSH_Exp2","2016_Mar_24_1419",NA
"Recordings/zuzi.wav","yes","z","z","u","no","i","zuzi","Training","alveolar","TrainingItems",0,46,46,99,NA,NA,NA,NA,NA,NA,NA,NA,NA,NA,123,"M",21,60.9681517552,NA,"American English","VSH_Exp2","2016_Mar_24_1419",NA
"Recordings/buba.wav","yes","b","b","u","yes","a","buba","Training","bilabial","TrainingItems",0,47,47,72,NA,NA,NA,NA,NA,NA,NA,NA,NA,NA,123,"M",21,60.9681517552,NA,"American English","VSH_Exp2","2016_Mar_24_1419",NA
"Recordings/bada.wav","yes","b","d","a","yes","a","bada","Training","bilabial","TrainingItems",0,48,48,61,NA,NA,NA,NA,NA,NA,NA,NA,NA,NA,123,"M",21,60.9681517552,NA,"American English","VSH_Exp2","2016_Mar_24_1419",NA
"Recordings/duba.wav","yes","d","b","u","yes","a","duba","Training","alveolar","TrainingItems",0,49,49,50,NA,NA,NA,NA,NA,NA,NA,NA,NA,NA,123,"M",21,60.9681517552,NA,"American English","VSH_Exp2","2016_Mar_24_1419",NA
"Recordings/dubu.wav","yes","d","b","u","yes","u","dubu","Training","alveolar","TrainingItems",0,50,50,77,NA,NA,NA,NA,NA,NA,NA,NA,NA,NA,123,"M",21,60.9681517552,NA,"American English","VSH_Exp2","2016_Mar_24_1419",NA
"Recordings/babu.wav","yes","b","b","a","yes","u","babu","Training","bilabial","TrainingItems",0,51,51,39,NA,NA,NA,NA,NA,NA,NA,NA,NA,NA,123,"M",21,60.9681517552,NA,"American English","VSH_Exp2","2016_Mar_24_1419",NA
"Recordings/ziva.wav","yes","z","v","i","no","a","ziva","Training","alveolar","TrainingItems",0,52,52,95,NA,NA,NA,NA,NA,NA,NA,NA,NA,NA,123,"M",21,60.9681517552,NA,"American English","VSH_Exp2","2016_Mar_24_1419",NA
"Recordings/bida.wav","yes","b","d","i","yes","a","bida","Training","bilabial","TrainingItems",0,53,53,21,NA,NA,NA,NA,NA,NA,NA,NA,NA,NA,123,"M",21,60.9681517552,NA,"American English","VSH_Exp2","2016_Mar_24_1419",NA
"Recordings/fifa.wav","no","f","f","i","no","a","fifa","Training","bilabial","TrainingItems",0,54,54,20,NA,NA,NA,NA,NA,NA,NA,NA,NA,NA,123,"M",21,60.9681517552,NA,"American English","VSH_Exp2","2016_Mar_24_1419",NA
"Recordings/piti.wav","no","p","t","i","yes","i","piti","Training","bilabial","TrainingItems",0,55,55,63,NA,NA,NA,NA,NA,NA,NA,NA,NA,NA,123,"M",21,60.9681517552,NA,"American English","VSH_Exp2","2016_Mar_24_1419",NA
"Recordings/didu.wav","yes","d","d","i","yes","u","didu","Training","alveolar","TrainingItems",0,56,56,76,NA,NA,NA,NA,NA,NA,NA,NA,NA,NA,123,"M",21,60.9681517552,NA,"American English","VSH_Exp2","2016_Mar_24_1419",NA
"Recordings/vuva.wav","yes","v","v","u","no","a","vuva","Training","bilabial","TrainingItems",0,57,57,59,NA,NA,NA,NA,NA,NA,NA,NA,NA,NA,123,"M",21,60.9681517552,NA,"American English","VSH_Exp2","2016_Mar_24_1419",NA
"Recordings/vazi.wav","yes","v","z","a","no","i","vazi","Training","bilabial","TrainingItems",0,58,58,94,NA,NA,NA,NA,NA,NA,NA,NA,NA,NA,123,"M",21,60.9681517552,NA,"American English","VSH_Exp2","2016_Mar_24_1419",NA
"Recordings/didi.wav","yes","d","d","i","yes","i","didi","Training","alveolar","TrainingItems",0,59,59,56,NA,NA,NA,NA,NA,NA,NA,NA,NA,NA,123,"M",21,60.9681517552,NA,"American English","VSH_Exp2","2016_Mar_24_1419",NA
"Recordings/diba.wav","yes","d","b","i","yes","a","diba","Training","alveolar","TrainingItems",0,60,60,11,NA,NA,NA,NA,NA,NA,NA,NA,NA,NA,123,"M",21,60.9681517552,NA,"American English","VSH_Exp2","2016_Mar_24_1419",NA
"Recordings/vizi.wav","yes","v","z","i","no","i","vizi","Training","bilabial","TrainingItems",0,61,61,86,NA,NA,NA,NA,NA,NA,NA,NA,NA,NA,123,"M",21,60.9681517552,NA,"American English","VSH_Exp2","2016_Mar_24_1419",NA
"Recordings/zuvu.wav","yes","z","v","u","no","u","zuvu","Training","alveolar","TrainingItems",0,62,62,13,NA,NA,NA,NA,NA,NA,NA,NA,NA,NA,123,"M",21,60.9681517552,NA,"American English","VSH_Exp2","2016_Mar_24_1419",NA
"Recordings/tuti.wav","no","t","t","u","yes","i","tuti","Training","alveolar","TrainingItems",0,63,63,17,NA,NA,NA,NA,NA,NA,NA,NA,NA,NA,123,"M",21,60.9681517552,NA,"American English","VSH_Exp2","2016_Mar_24_1419",NA
"Recordings/tupu.wav","no","t","p","u","yes","u","tupu","Training","alveolar","TrainingItems",0,64,64,87,NA,NA,NA,NA,NA,NA,NA,NA,NA,NA,123,"M",21,60.9681517552,NA,"American English","VSH_Exp2","2016_Mar_24_1419",NA
"Recordings/sisa.wav","no","s","s","i","no","a","sisa","Training","alveolar","TrainingItems",0,65,65,71,NA,NA,NA,NA,NA,NA,NA,NA,NA,NA,123,"M",21,60.9681517552,NA,"American English","VSH_Exp2","2016_Mar_24_1419",NA
"Recordings/tupa.wav","no","t","p","u","yes","a","tupa","Training","alveolar","TrainingItems",0,66,66,37,NA,NA,NA,NA,NA,NA,NA,NA,NA,NA,123,"M",21,60.9681517552,NA,"American English","VSH_Exp2","2016_Mar_24_1419",NA
"Recordings/susu.wav","no","s","s","u","no","u","susu","Training","alveolar","TrainingItems",0,67,67,69,NA,NA,NA,NA,NA,NA,NA,NA,NA,NA,123,"M",21,60.9681517552,NA,"American English","VSH_Exp2","2016_Mar_24_1419",NA
"Recordings/buda.wav","yes","b","d","u","yes","a","buda","Training","bilabial","TrainingItems",0,68,68,16,NA,NA,NA,NA,NA,NA,NA,NA,NA,NA,123,"M",21,60.9681517552,NA,"American English","VSH_Exp2","2016_Mar_24_1419",NA
"Recordings/zuva.wav","yes","z","v","u","no","a","zuva","Training","alveolar","TrainingItems",0,69,69,10,NA,NA,NA,NA,NA,NA,NA,NA,NA,NA,123,"M",21,60.9681517552,NA,"American English","VSH_Exp2","2016_Mar_24_1419",NA
"Recordings/fifu.wav","no","f","f","i","no","u","fifu","Training","bilabial","TrainingItems",0,70,70,2,NA,NA,NA,NA,NA,NA,NA,NA,NA,NA,123,"M",21,60.9681517552,NA,"American English","VSH_Exp2","2016_Mar_24_1419",NA
"Recordings/zuvi.wav","yes","z","v","u","no","i","zuvi","Training","alveolar","TrainingItems",0,71,71,26,NA,NA,NA,NA,NA,NA,NA,NA,NA,NA,123,"M",21,60.9681517552,NA,"American English","VSH_Exp2","2016_Mar_24_1419",NA
"Recordings/vivi.wav","yes","v","v","i","no","i","vivi","Training","bilabial","TrainingItems",0,72,72,68,NA,NA,NA,NA,NA,NA,NA,NA,NA,NA,123,"M",21,60.9681517552,NA,"American English","VSH_Exp2","2016_Mar_24_1419",NA
"Recordings/zazu.wav","yes","z","z","a","no","u","zazu","Training","alveolar","TrainingItems",0,73,73,35,NA,NA,NA,NA,NA,NA,NA,NA,NA,NA,123,"M",21,60.9681517552,NA,"American English","VSH_Exp2","2016_Mar_24_1419",NA
"Recordings/tita.wav","no","t","t","i","yes","a","tita","Training","alveolar","TrainingItems",0,74,74,23,NA,NA,NA,NA,NA,NA,NA,NA,NA,NA,123,"M",21,60.9681517552,NA,"American English","VSH_Exp2","2016_Mar_24_1419",NA
"Recordings/pipa.wav","no","p","p","i","yes","a","pipa","Training","bilabial","TrainingItems",0,75,75,12,NA,NA,NA,NA,NA,NA,NA,NA,NA,NA,123,"M",21,60.9681517552,NA,"American English","VSH_Exp2","2016_Mar_24_1419",NA
"Recordings/zuzu.wav","yes","z","z","u","no","u","zuzu","Training","alveolar","TrainingItems",0,76,76,14,NA,NA,NA,NA,NA,NA,NA,NA,NA,NA,123,"M",21,60.9681517552,NA,"American English","VSH_Exp2","2016_Mar_24_1419",NA
"Recordings/papu.wav","no","p","p","a","yes","u","papu","Training","bilabial","TrainingItems",0,77,77,65,NA,NA,NA,NA,NA,NA,NA,NA,NA,NA,123,"M",21,60.9681517552,NA,"American English","VSH_Exp2","2016_Mar_24_1419",NA
"Recordings/bidu.wav","yes","b","d","i","yes","u","bidu","Training","bilabial","TrainingItems",0,78,78,0,NA,NA,NA,NA,NA,NA,NA,NA,NA,NA,123,"M",21,60.9681517552,NA,"American English","VSH_Exp2","2016_Mar_24_1419",NA
"Recordings/viva.wav","yes","v","v","i","no","a","viva","Training","bilabial","TrainingItems",0,79,79,64,NA,NA,NA,NA,NA,NA,NA,NA,NA,NA,123,"M",21,60.9681517552,NA,"American English","VSH_Exp2","2016_Mar_24_1419",NA
"Recordings/tati.wav","no","t","t","a","yes","i","tati","Training","alveolar","TrainingItems",0,80,80,45,NA,NA,NA,NA,NA,NA,NA,NA,NA,NA,123,"M",21,60.9681517552,NA,"American English","VSH_Exp2","2016_Mar_24_1419",NA
"Recordings/fafa.wav","no","f","f","a","no","a","fafa","Training","bilabial","TrainingItems",0,81,81,78,NA,NA,NA,NA,NA,NA,NA,NA,NA,NA,123,"M",21,60.9681517552,NA,"American English","VSH_Exp2","2016_Mar_24_1419",NA
"Recordings/pitu.wav","no","p","t","i","yes","u","pitu","Training","bilabial","TrainingItems",0,82,82,44,NA,NA,NA,NA,NA,NA,NA,NA,NA,NA,123,"M",21,60.9681517552,NA,"American English","VSH_Exp2","2016_Mar_24_1419",NA
"Recordings/fufi.wav","no","f","f","u","no","i","fufi","Training","bilabial","TrainingItems",0,83,83,83,NA,NA,NA,NA,NA,NA,NA,NA,NA,NA,123,"M",21,60.9681517552,NA,"American English","VSH_Exp2","2016_Mar_24_1419",NA
"Recordings/zizi.wav","yes","z","z","i","no","i","zizi","Training","alveolar","TrainingItems",0,84,84,8,NA,NA,NA,NA,NA,NA,NA,NA,NA,NA,123,"M",21,60.9681517552,NA,"American English","VSH_Exp2","2016_Mar_24_1419",NA
"Recordings/dadi.wav","yes","d","d","a","yes","i","dadi","Training","alveolar","TrainingItems",0,85,85,46,NA,NA,NA,NA,NA,NA,NA,NA,NA,NA,123,"M",21,60.9681517552,NA,"American English","VSH_Exp2","2016_Mar_24_1419",NA
"Recordings/zava.wav","yes","z","v","a","no","a","zava","Training","alveolar","TrainingItems",0,86,86,57,NA,NA,NA,NA,NA,NA,NA,NA,NA,NA,123,"M",21,60.9681517552,NA,"American English","VSH_Exp2","2016_Mar_24_1419",NA
"Recordings/pipu.wav","no","p","p","i","yes","u","pipu","Training","bilabial","TrainingItems",0,87,87,80,NA,NA,NA,NA,NA,NA,NA,NA,NA,NA,123,"M",21,60.9681517552,NA,"American English","VSH_Exp2","2016_Mar_24_1419",NA
"Recordings/bibi.wav","yes","b","b","i","yes","i","bibi","Training","bilabial","TrainingItems",0,88,88,82,NA,NA,NA,NA,NA,NA,NA,NA,NA,NA,123,"M",21,60.9681517552,NA,"American English","VSH_Exp2","2016_Mar_24_1419",NA
"Recordings/dudu.wav","yes","d","d","u","yes","u","dudu","Training","alveolar","TrainingItems",0,89,89,28,NA,NA,NA,NA,NA,NA,NA,NA,NA,NA,123,"M",21,60.9681517552,NA,"American English","VSH_Exp2","2016_Mar_24_1419",NA
"Recordings/badu.wav","yes","b","d","a","yes","u","badu","Training","bilabial","TrainingItems",0,90,90,43,NA,NA,NA,NA,NA,NA,NA,NA,NA,NA,123,"M",21,60.9681517552,NA,"American English","VSH_Exp2","2016_Mar_24_1419",NA
"Recordings/tipi.wav","no","t","p","i","yes","i","tipi","Training","alveolar","TrainingItems",0,91,91,31,NA,NA,NA,NA,NA,NA,NA,NA,NA,NA,123,"M",21,60.9681517552,NA,"American English","VSH_Exp2","2016_Mar_24_1419",NA
"Recordings/pati.wav","no","p","t","a","yes","i","pati","Training","bilabial","TrainingItems",0,92,92,96,NA,NA,NA,NA,NA,NA,NA,NA,NA,NA,123,"M",21,60.9681517552,NA,"American English","VSH_Exp2","2016_Mar_24_1419",NA
"Recordings/sasi.wav","no","s","s","a","no","i","sasi","Training","alveolar","TrainingItems",0,93,93,88,NA,NA,NA,NA,NA,NA,NA,NA,NA,NA,123,"M",21,60.9681517552,NA,"American English","VSH_Exp2","2016_Mar_24_1419",NA
"Recordings/vava.wav","yes","v","v","a","no","a","vava","Training","bilabial","TrainingItems",0,94,94,98,NA,NA,NA,NA,NA,NA,NA,NA,NA,NA,123,"M",21,60.9681517552,NA,"American English","VSH_Exp2","2016_Mar_24_1419",NA
"Recordings/sisu.wav","no","s","s","i","no","u","sisu","Training","alveolar","TrainingItems",0,95,95,42,NA,NA,NA,NA,NA,NA,NA,NA,NA,NA,123,"M",21,60.9681517552,NA,"American English","VSH_Exp2","2016_Mar_24_1419",NA
"Recordings/dudi.wav","yes","d","d","u","yes","i","dudi","Training","alveolar","TrainingItems",0,96,96,58,NA,NA,NA,NA,NA,NA,NA,NA,NA,NA,123,"M",21,60.9681517552,NA,"American English","VSH_Exp2","2016_Mar_24_1419",NA
"Recordings/papa.wav","no","p","p","a","yes","a","papa","Training","bilabial","TrainingItems",0,97,97,25,NA,NA,NA,NA,NA,NA,NA,NA,NA,NA,123,"M",21,60.9681517552,NA,"American English","VSH_Exp2","2016_Mar_24_1419",NA
"Recordings/fifi.wav","no","f","f","i","no","i","fifi","Training","bilabial","TrainingItems",0,98,98,60,NA,NA,NA,NA,NA,NA,NA,NA,NA,NA,123,"M",21,60.9681517552,NA,"American English","VSH_Exp2","2016_Mar_24_1419",NA
"Recordings/tipu.wav","no","t","p","i","yes","u","tipu","Training","alveolar","TrainingItems",0,99,99,48,NA,NA,NA,NA,NA,NA,NA,NA,NA,NA,123,"M",21,60.9681517552,NA,"American English","VSH_Exp2","2016_Mar_24_1419",NA
"Recordings/puti.wav","no","p","t","u","yes","i","puti","Training","bilabial","TrainingItems",1,0,100,54,NA,NA,NA,NA,NA,NA,NA,NA,NA,NA,123,"M",21,60.9681517552,NA,"American English","VSH_Exp2","2016_Mar_24_1419",NA
"Recordings/zazi.wav","yes","z","z","a","no","i","zazi","Training","alveolar","TrainingItems",1,1,101,47,NA,NA,NA,NA,NA,NA,NA,NA,NA,NA,123,"M",21,60.9681517552,NA,"American English","VSH_Exp2","2016_Mar_24_1419",NA
"Recordings/vava.wav","yes","v","v","a","no","a","vava","Training","bilabial","TrainingItems",1,2,102,98,NA,NA,NA,NA,NA,NA,NA,NA,NA,NA,123,"M",21,60.9681517552,NA,"American English","VSH_Exp2","2016_Mar_24_1419",NA
"Recordings/zaza.wav","yes","z","z","a","no","a","zaza","Training","alveolar","TrainingItems",1,3,103,51,NA,NA,NA,NA,NA,NA,NA,NA,NA,NA,123,"M",21,60.9681517552,NA,"American English","VSH_Exp2","2016_Mar_24_1419",NA
"Recordings/dadi.wav","yes","d","d","a","yes","i","dadi","Training","alveolar","TrainingItems",1,4,104,46,NA,NA,NA,NA,NA,NA,NA,NA,NA,NA,123,"M",21,60.9681517552,NA,"American English","VSH_Exp2","2016_Mar_24_1419",NA
"Recordings/dudi.wav","yes","d","d","u","yes","i","dudi","Training","alveolar","TrainingItems",1,5,105,58,NA,NA,NA,NA,NA,NA,NA,NA,NA,NA,123,"M",21,60.9681517552,NA,"American English","VSH_Exp2","2016_Mar_24_1419",NA
"Recordings/duba.wav","yes","d","b","u","yes","a","duba","Training","alveolar","TrainingItems",1,6,106,50,NA,NA,NA,NA,NA,NA,NA,NA,NA,NA,123,"M",21,60.9681517552,NA,"American English","VSH_Exp2","2016_Mar_24_1419",NA
"Recordings/sasu.wav","no","s","s","a","no","u","sasu","Training","alveolar","TrainingItems",1,7,107,33,NA,NA,NA,NA,NA,NA,NA,NA,NA,NA,123,"M",21,60.9681517552,NA,"American English","VSH_Exp2","2016_Mar_24_1419",NA
"Recordings/vuza.wav","yes","v","z","u","no","a","vuza","Training","bilabial","TrainingItems",1,8,108,1,NA,NA,NA,NA,NA,NA,NA,NA,NA,NA,123,"M",21,60.9681517552,NA,"American English","VSH_Exp2","2016_Mar_24_1419",NA
"Recordings/babi.wav","yes","b","b","a","yes","i","babi","Training","bilabial","TrainingItems",1,9,109,6,NA,NA,NA,NA,NA,NA,NA,NA,NA,NA,123,"M",21,60.9681517552,NA,"American English","VSH_Exp2","2016_Mar_24_1419",NA
"Recordings/putu.wav","no","p","t","u","yes","u","putu","Training","bilabial","TrainingItems",1,10,110,24,NA,NA,NA,NA,NA,NA,NA,NA,NA,NA,123,"M",21,60.9681517552,NA,"American English","VSH_Exp2","2016_Mar_24_1419",NA
"Recordings/zuvu.wav","yes","z","v","u","no","u","zuvu","Training","alveolar","TrainingItems",1,11,111,13,NA,NA,NA,NA,NA,NA,NA,NA,NA,NA,123,"M",21,60.9681517552,NA,"American English","VSH_Exp2","2016_Mar_24_1419",NA
"Recordings/dubi.wav","yes","d","b","u","yes","i","dubi","Training","alveolar","TrainingItems",1,12,112,38,NA,NA,NA,NA,NA,NA,NA,NA,NA,NA,123,"M",21,60.9681517552,NA,"American English","VSH_Exp2","2016_Mar_24_1419",NA
"Recordings/zizu.wav","yes","z","z","i","no","u","zizu","Training","alveolar","TrainingItems",1,13,113,29,NA,NA,NA,NA,NA,NA,NA,NA,NA,NA,123,"M",21,60.9681517552,NA,"American English","VSH_Exp2","2016_Mar_24_1419",NA
"Recordings/tuta.wav","no","t","t","u","yes","a","tuta","Training","alveolar","TrainingItems",1,14,114,81,NA,NA,NA,NA,NA,NA,NA,NA,NA,NA,123,"M",21,60.9681517552,NA,"American English","VSH_Exp2","2016_Mar_24_1419",NA
"Recordings/dubu.wav","yes","d","b","u","yes","u","dubu","Training","alveolar","TrainingItems",1,15,115,77,NA,NA,NA,NA,NA,NA,NA,NA,NA,NA,123,"M",21,60.9681517552,NA,"American English","VSH_Exp2","2016_Mar_24_1419",NA
"Recordings/badi.wav","yes","b","d","a","yes","i","badi","Training","bilabial","TrainingItems",1,16,116,73,NA,NA,NA,NA,NA,NA,NA,NA,NA,NA,123,"M",21,60.9681517552,NA,"American English","VSH_Exp2","2016_Mar_24_1419",NA
"Recordings/tapi.wav","no","t","p","a","yes","i","tapi","Training","alveolar","TrainingItems",1,17,117,74,NA,NA,NA,NA,NA,NA,NA,NA,NA,NA,123,"M",21,60.9681517552,NA,"American English","VSH_Exp2","2016_Mar_24_1419",NA
"Recordings/pita.wav","no","p","t","i","yes","a","pita","Training","bilabial","TrainingItems",1,18,118,40,NA,NA,NA,NA,NA,NA,NA,NA,NA,NA,123,"M",21,60.9681517552,NA,"American English","VSH_Exp2","2016_Mar_24_1419",NA
"Recordings/zuza.wav","yes","z","z","u","no","a","zuza","Training","alveolar","TrainingItems",1,19,119,34,NA,NA,NA,NA,NA,NA,NA,NA,NA,NA,123,"M",21,60.9681517552,NA,"American English","VSH_Exp2","2016_Mar_24_1419",NA
"Recordings/tupu.wav","no","t","p","u","yes","u","tupu","Training","alveolar","TrainingItems",1,20,120,87,NA,NA,NA,NA,NA,NA,NA,NA,NA,NA,123,"M",21,60.9681517552,NA,"American English","VSH_Exp2","2016_Mar_24_1419",NA
"Recordings/diba.wav","yes","d","b","i","yes","a","diba","Training","alveolar","TrainingItems",1,21,121,11,NA,NA,NA,NA,NA,NA,NA,NA,NA,NA,123,"M",21,60.9681517552,NA,"American English","VSH_Exp2","2016_Mar_24_1419",NA
"Recordings/zuvi.wav","yes","z","v","u","no","i","zuvi","Training","alveolar","TrainingItems",1,22,122,26,NA,NA,NA,NA,NA,NA,NA,NA,NA,NA,123,"M",21,60.9681517552,NA,"American English","VSH_Exp2","2016_Mar_24_1419",NA
"Recordings/tupa.wav","no","t","p","u","yes","a","tupa","Training","alveolar","TrainingItems",1,23,123,37,NA,NA,NA,NA,NA,NA,NA,NA,NA,NA,123,"M",21,60.9681517552,NA,"American English","VSH_Exp2","2016_Mar_24_1419",NA
"Recordings/buba.wav","yes","b","b","u","yes","a","buba","Training","bilabial","TrainingItems",1,24,124,72,NA,NA,NA,NA,NA,NA,NA,NA,NA,NA,123,"M",21,60.9681517552,NA,"American English","VSH_Exp2","2016_Mar_24_1419",NA
"Recordings/dibu.wav","yes","d","b","i","yes","u","dibu","Training","alveolar","TrainingItems",1,25,125,30,NA,NA,NA,NA,NA,NA,NA,NA,NA,NA,123,"M",21,60.9681517552,NA,"American English","VSH_Exp2","2016_Mar_24_1419",NA
"Recordings/tapu.wav","no","t","p","a","yes","u","tapu","Training","alveolar","TrainingItems",1,26,126,85,NA,NA,NA,NA,NA,NA,NA,NA,NA,NA,123,"M",21,60.9681517552,NA,"American English","VSH_Exp2","2016_Mar_24_1419",NA
"Recordings/fifu.wav","no","f","f","i","no","u","fifu","Training","bilabial","TrainingItems",1,27,127,2,NA,NA,NA,NA,NA,NA,NA,NA,NA,NA,123,"M",21,60.9681517552,NA,"American English","VSH_Exp2","2016_Mar_24_1419",NA
"Recordings/dabu.wav","yes","d","b","a","yes","u","dabu","Training","alveolar","TrainingItems",1,28,128,5,NA,NA,NA,NA,NA,NA,NA,NA,NA,NA,123,"M",21,60.9681517552,NA,"American English","VSH_Exp2","2016_Mar_24_1419",NA
"Recordings/zavi.wav","yes","z","v","a","no","i","zavi","Training","alveolar","TrainingItems",1,29,129,27,NA,NA,NA,NA,NA,NA,NA,NA,NA,NA,123,"M",21,60.9681517552,NA,"American English","VSH_Exp2","2016_Mar_24_1419",NA
"Recordings/puta.wav","no","p","t","u","yes","a","puta","Training","bilabial","TrainingItems",1,30,130,15,NA,NA,NA,NA,NA,NA,NA,NA,NA,NA,123,"M",21,60.9681517552,NA,"American English","VSH_Exp2","2016_Mar_24_1419",NA
"Recordings/vuva.wav","yes","v","v","u","no","a","vuva","Training","bilabial","TrainingItems",1,31,131,59,NA,NA,NA,NA,NA,NA,NA,NA,NA,NA,123,"M",21,60.9681517552,NA,"American English","VSH_Exp2","2016_Mar_24_1419",NA
"Recordings/pitu.wav","no","p","t","i","yes","u","pitu","Training","bilabial","TrainingItems",1,32,132,44,NA,NA,NA,NA,NA,NA,NA,NA,NA,NA,123,"M",21,60.9681517552,NA,"American English","VSH_Exp2","2016_Mar_24_1419",NA
"Recordings/vazi.wav","yes","v","z","a","no","i","vazi","Training","bilabial","TrainingItems",1,33,133,94,NA,NA,NA,NA,NA,NA,NA,NA,NA,NA,123,"M",21,60.9681517552,NA,"American English","VSH_Exp2","2016_Mar_24_1419",NA
"Recordings/sisa.wav","no","s","s","i","no","a","sisa","Training","alveolar","TrainingItems",1,34,134,71,NA,NA,NA,NA,NA,NA,NA,NA,NA,NA,123,"M",21,60.9681517552,NA,"American English","VSH_Exp2","2016_Mar_24_1419",NA
"Recordings/babu.wav","yes","b","b","a","yes","u","babu","Training","bilabial","TrainingItems",1,35,135,39,NA,NA,NA,NA,NA,NA,NA,NA,NA,NA,123,"M",21,60.9681517552,NA,"American English","VSH_Exp2","2016_Mar_24_1419",NA
"Recordings/vuzi.wav","yes","v","z","u","no","i","vuzi","Training","bilabial","TrainingItems",1,36,136,79,NA,NA,NA,NA,NA,NA,NA,NA,NA,NA,123,"M",21,60.9681517552,NA,"American English","VSH_Exp2","2016_Mar_24_1419",NA
"Recordings/zazu.wav","yes","z","z","a","no","u","zazu","Training","alveolar","TrainingItems",1,37,137,35,NA,NA,NA,NA,NA,NA,NA,NA,NA,NA,123,"M",21,60.9681517552,NA,"American English","VSH_Exp2","2016_Mar_24_1419",NA
"Recordings/pipa.wav","no","p","p","i","yes","a","pipa","Training","bilabial","TrainingItems",1,38,138,12,NA,NA,NA,NA,NA,NA,NA,NA,NA,NA,123,"M",21,60.9681517552,NA,"American English","VSH_Exp2","2016_Mar_24_1419",NA
"Recordings/buda.wav","yes","b","d","u","yes","a","buda","Training","bilabial","TrainingItems",1,39,139,16,NA,NA,NA,NA,NA,NA,NA,NA,NA,NA,123,"M",21,60.9681517552,NA,"American English","VSH_Exp2","2016_Mar_24_1419",NA
"Recordings/vavi.wav","yes","v","v","a","no","i","vavi","Training","bilabial","TrainingItems",1,40,140,4,NA,NA,NA,NA,NA,NA,NA,NA,NA,NA,123,"M",21,60.9681517552,NA,"American English","VSH_Exp2","2016_Mar_24_1419",NA
"Recordings/dadu.wav","yes","d","d","a","yes","u","dadu","Training","alveolar","TrainingItems",1,41,141,67,NA,NA,NA,NA,NA,NA,NA,NA,NA,NA,123,"M",21,60.9681517552,NA,"American English","VSH_Exp2","2016_Mar_24_1419",NA
"Recordings/ziza.wav","yes","z","z","i","no","a","ziza","Training","alveolar","TrainingItems",1,42,142,52,NA,NA,NA,NA,NA,NA,NA,NA,NA,NA,123,"M",21,60.9681517552,NA,"American English","VSH_Exp2","2016_Mar_24_1419",NA
"Recordings/zavu.wav","yes","z","v","a","no","u","zavu","Training","alveolar","TrainingItems",1,43,143,41,NA,NA,NA,NA,NA,NA,NA,NA,NA,NA,123,"M",21,60.9681517552,NA,"American English","VSH_Exp2","2016_Mar_24_1419",NA
"Recordings/budi.wav","yes","b","d","u","yes","i","budi","Training","bilabial","TrainingItems",1,44,144,90,NA,NA,NA,NA,NA,NA,NA,NA,NA,NA,123,"M",21,60.9681517552,NA,"American English","VSH_Exp2","2016_Mar_24_1419",NA
"Recordings/didu.wav","yes","d","d","i","yes","u","didu","Training","alveolar","TrainingItems",1,45,145,76,NA,NA,NA,NA,NA,NA,NA,NA,NA,NA,123,"M",21,60.9681517552,NA,"American English","VSH_Exp2","2016_Mar_24_1419",NA
"Recordings/susi.wav","no","s","s","u","no","i","susi","Training","alveolar","TrainingItems",1,46,146,62,NA,NA,NA,NA,NA,NA,NA,NA,NA,NA,123,"M",21,60.9681517552,NA,"American English","VSH_Exp2","2016_Mar_24_1419",NA
"Recordings/sasi.wav","no","s","s","a","no","i","sasi","Training","alveolar","TrainingItems",1,47,147,88,NA,NA,NA,NA,NA,NA,NA,NA,NA,NA,123,"M",21,60.9681517552,NA,"American English","VSH_Exp2","2016_Mar_24_1419",NA
"Recordings/vavu.wav","yes","v","v","a","no","u","vavu","Training","bilabial","TrainingItems",1,48,148,70,NA,NA,NA,NA,NA,NA,NA,NA,NA,NA,123,"M",21,60.9681517552,NA,"American English","VSH_Exp2","2016_Mar_24_1419",NA
"Recordings/vivi.wav","yes","v","v","i","no","i","vivi","Training","bilabial","TrainingItems",1,49,149,68,NA,NA,NA,NA,NA,NA,NA,NA,NA,NA,123,"M",21,60.9681517552,NA,"American English","VSH_Exp2","2016_Mar_24_1419",NA
"Recordings/zuzu.wav","yes","z","z","u","no","u","zuzu","Training","alveolar","TrainingItems",1,50,150,14,NA,NA,NA,NA,NA,NA,NA,NA,NA,NA,123,"M",21,60.9681517552,NA,"American English","VSH_Exp2","2016_Mar_24_1419",NA
"Recordings/pipu.wav","no","p","p","i","yes","u","pipu","Training","bilabial","TrainingItems",1,51,151,80,NA,NA,NA,NA,NA,NA,NA,NA,NA,NA,123,"M",21,60.9681517552,NA,"American English","VSH_Exp2","2016_Mar_24_1419",NA
"Recordings/fifi.wav","no","f","f","i","no","i","fifi","Training","bilabial","TrainingItems",1,52,152,60,NA,NA,NA,NA,NA,NA,NA,NA,NA,NA,123,"M",21,60.9681517552,NA,"American English","VSH_Exp2","2016_Mar_24_1419",NA
"Recordings/vazu.wav","yes","v","z","a","no","u","vazu","Training","bilabial","TrainingItems",1,53,153,93,NA,NA,NA,NA,NA,NA,NA,NA,NA,NA,123,"M",21,60.9681517552,NA,"American English","VSH_Exp2","2016_Mar_24_1419",NA
"Recordings/bubi.wav","yes","b","b","u","yes","i","bubi","Training","bilabial","TrainingItems",1,54,154,55,NA,NA,NA,NA,NA,NA,NA,NA,NA,NA,123,"M",21,60.9681517552,NA,"American English","VSH_Exp2","2016_Mar_24_1419",NA
"Recordings/sasa.wav","no","s","s","a","no","a","sasa","Training","alveolar","TrainingItems",1,55,155,84,NA,NA,NA,NA,NA,NA,NA,NA,NA,NA,123,"M",21,60.9681517552,NA,"American English","VSH_Exp2","2016_Mar_24_1419",NA
"Recordings/zizi.wav","yes","z","z","i","no","i","zizi","Training","alveolar","TrainingItems",1,56,156,8,NA,NA,NA,NA,NA,NA,NA,NA,NA,NA,123,"M",21,60.9681517552,NA,"American English","VSH_Exp2","2016_Mar_24_1419",NA
"Recordings/bidu.wav","yes","b","d","i","yes","u","bidu","Training","bilabial","TrainingItems",1,57,157,0,NA,NA,NA,NA,NA,NA,NA,NA,NA,NA,123,"M",21,60.9681517552,NA,"American English","VSH_Exp2","2016_Mar_24_1419",NA
"Recordings/dabi.wav","yes","d","b","a","yes","i","dabi","Training","alveolar","TrainingItems",1,58,158,66,NA,NA,NA,NA,NA,NA,NA,NA,NA,NA,123,"M",21,60.9681517552,NA,"American English","VSH_Exp2","2016_Mar_24_1419",NA
"Recordings/bidi.wav","yes","b","d","i","yes","i","bidi","Training","bilabial","TrainingItems",1,59,159,53,NA,NA,NA,NA,NA,NA,NA,NA,NA,NA,123,"M",21,60.9681517552,NA,"American English","VSH_Exp2","2016_Mar_24_1419",NA
"Recordings/dada.wav","yes","d","d","a","yes","a","dada","Training","alveolar","TrainingItems",1,60,160,19,NA,NA,NA,NA,NA,NA,NA,NA,NA,NA,123,"M",21,60.9681517552,NA,"American English","VSH_Exp2","2016_Mar_24_1419",NA
"Recordings/duda.wav","yes","d","d","u","yes","a","duda","Training","alveolar","TrainingItems",1,61,161,7,NA,NA,NA,NA,NA,NA,NA,NA,NA,NA,123,"M",21,60.9681517552,NA,"American English","VSH_Exp2","2016_Mar_24_1419",NA
"Recordings/tipi.wav","no","t","p","i","yes","i","tipi","Training","alveolar","TrainingItems",1,62,162,31,NA,NA,NA,NA,NA,NA,NA,NA,NA,NA,123,"M",21,60.9681517552,NA,"American English","VSH_Exp2","2016_Mar_24_1419",NA
"Recordings/bibi.wav","yes","b","b","i","yes","i","bibi","Training","bilabial","TrainingItems",1,63,163,82,NA,NA,NA,NA,NA,NA,NA,NA,NA,NA,123,"M",21,60.9681517552,NA,"American English","VSH_Exp2","2016_Mar_24_1419",NA
"Recordings/papu.wav","no","p","p","a","yes","u","papu","Training","bilabial","TrainingItems",1,64,164,65,NA,NA,NA,NA,NA,NA,NA,NA,NA,NA,123,"M",21,60.9681517552,NA,"American English","VSH_Exp2","2016_Mar_24_1419",NA
"Recordings/badu.wav","yes","b","d","a","yes","u","badu","Training","bilabial","TrainingItems",1,65,165,43,NA,NA,NA,NA,NA,NA,NA,NA,NA,NA,123,"M",21,60.9681517552,NA,"American English","VSH_Exp2","2016_Mar_24_1419",NA
"Recordings/fafa.wav","no","f","f","a","no","a","fafa","Training","bilabial","TrainingItems",1,66,166,78,NA,NA,NA,NA,NA,NA,NA,NA,NA,NA,123,"M",21,60.9681517552,NA,"American English","VSH_Exp2","2016_Mar_24_1419",NA
"Recordings/papa.wav","no","p","p","a","yes","a","papa","Training","bilabial","TrainingItems",1,67,167,25,NA,NA,NA,NA,NA,NA,NA,NA,NA,NA,123,"M",21,60.9681517552,NA,"American English","VSH_Exp2","2016_Mar_24_1419",NA
"Recordings/zuzi.wav","yes","z","z","u","no","i","zuzi","Training","alveolar","TrainingItems",1,68,168,99,NA,NA,NA,NA,NA,NA,NA,NA,NA,NA,123,"M",21,60.9681517552,NA,"American English","VSH_Exp2","2016_Mar_24_1419",NA
"Recordings/dudu.wav","yes","d","d","u","yes","u","dudu","Training","alveolar","TrainingItems",1,69,169,28,NA,NA,NA,NA,NA,NA,NA,NA,NA,NA,123,"M",21,60.9681517552,NA,"American English","VSH_Exp2","2016_Mar_24_1419",NA
"Recordings/viza.wav","yes","v","z","i","no","a","viza","Training","bilabial","TrainingItems",1,70,170,89,NA,NA,NA,NA,NA,NA,NA,NA,NA,NA,123,"M",21,60.9681517552,NA,"American English","VSH_Exp2","2016_Mar_24_1419",NA
"Recordings/bada.wav","yes","b","d","a","yes","a","bada","Training","bilabial","TrainingItems",1,71,171,61,NA,NA,NA,NA,NA,NA,NA,NA,NA,NA,123,"M",21,60.9681517552,NA,"American English","VSH_Exp2","2016_Mar_24_1419",NA
"Recordings/tipu.wav","no","t","p","i","yes","u","tipu","Training","alveolar","TrainingItems",1,72,172,48,NA,NA,NA,NA,NA,NA,NA,NA,NA,NA,123,"M",21,60.9681517552,NA,"American English","VSH_Exp2","2016_Mar_24_1419",NA
"Recordings/tita.wav","no","t","t","i","yes","a","tita","Training","alveolar","TrainingItems",1,73,173,23,NA,NA,NA,NA,NA,NA,NA,NA,NA,NA,123,"M",21,60.9681517552,NA,"American English","VSH_Exp2","2016_Mar_24_1419",NA
"Recordings/bida.wav","yes","b","d","i","yes","a","bida","Training","bilabial","TrainingItems",1,74,174,21,NA,NA,NA,NA,NA,NA,NA,NA,NA,NA,123,"M",21,60.9681517552,NA,"American English","VSH_Exp2","2016_Mar_24_1419",NA
"Recordings/fufi.wav","no","f","f","u","no","i","fufi","Training","bilabial","TrainingItems",1,75,175,83,NA,NA,NA,NA,NA,NA,NA,NA,NA,NA,123,"M",21,60.9681517552,NA,"American English","VSH_Exp2","2016_Mar_24_1419",NA
"Recordings/bubu.wav","yes","b","b","u","yes","u","bubu","Training","bilabial","TrainingItems",1,76,176,32,NA,NA,NA,NA,NA,NA,NA,NA,NA,NA,123,"M",21,60.9681517552,NA,"American English","VSH_Exp2","2016_Mar_24_1419",NA
"Recordings/vizu.wav","yes","v","z","i","no","u","vizu","Training","bilabial","TrainingItems",1,77,177,91,NA,NA,NA,NA,NA,NA,NA,NA,NA,NA,123,"M",21,60.9681517552,NA,"American English","VSH_Exp2","2016_Mar_24_1419",NA
"Recordings/tuti.wav","no","t","t","u","yes","i","tuti","Training","alveolar","TrainingItems",1,78,178,17,NA,NA,NA,NA,NA,NA,NA,NA,NA,NA,123,"M",21,60.9681517552,NA,"American English","VSH_Exp2","2016_Mar_24_1419",NA
"Recordings/tati.wav","no","t","t","a","yes","i","tati","Training","alveolar","TrainingItems",1,79,179,45,NA,NA,NA,NA,NA,NA,NA,NA,NA,NA,123,"M",21,60.9681517552,NA,"American English","VSH_Exp2","2016_Mar_24_1419",NA
"Recordings/vuvu.wav","yes","v","v","u","no","u","vuvu","Training","bilabial","TrainingItems",1,80,180,92,NA,NA,NA,NA,NA,NA,NA,NA,NA,NA,123,"M",21,60.9681517552,NA,"American English","VSH_Exp2","2016_Mar_24_1419",NA
"Recordings/zava.wav","yes","z","v","a","no","a","zava","Training","alveolar","TrainingItems",1,81,181,57,NA,NA,NA,NA,NA,NA,NA,NA,NA,NA,123,"M",21,60.9681517552,NA,"American English","VSH_Exp2","2016_Mar_24_1419",NA
"Recordings/susu.wav","no","s","s","u","no","u","susu","Training","alveolar","TrainingItems",1,82,182,69,NA,NA,NA,NA,NA,NA,NA,NA,NA,NA,123,"M",21,60.9681517552,NA,"American English","VSH_Exp2","2016_Mar_24_1419",NA
"Recordings/sisu.wav","no","s","s","i","no","u","sisu","Training","alveolar","TrainingItems",1,83,183,42,NA,NA,NA,NA,NA,NA,NA,NA,NA,NA,123,"M",21,60.9681517552,NA,"American English","VSH_Exp2","2016_Mar_24_1419",NA
"Recordings/zuva.wav","yes","z","v","u","no","a","zuva","Training","alveolar","TrainingItems",1,84,184,10,NA,NA,NA,NA,NA,NA,NA,NA,NA,NA,123,"M",21,60.9681517552,NA,"American English","VSH_Exp2","2016_Mar_24_1419",NA
"Recordings/patu.wav","no","p","t","a","yes","u","patu","Training","bilabial","TrainingItems",1,85,185,49,NA,NA,NA,NA,NA,NA,NA,NA,NA,NA,123,"M",21,60.9681517552,NA,"American English","VSH_Exp2","2016_Mar_24_1419",NA
"Recordings/piti.wav","no","p","t","i","yes","i","piti","Training","bilabial","TrainingItems",1,86,186,63,NA,NA,NA,NA,NA,NA,NA,NA,NA,NA,123,"M",21,60.9681517552,NA,"American English","VSH_Exp2","2016_Mar_24_1419",NA
"Recordings/zivu.wav","yes","z","v","i","no","u","zivu","Training","alveolar","TrainingItems",1,87,187,75,NA,NA,NA,NA,NA,NA,NA,NA,NA,NA,123,"M",21,60.9681517552,NA,"American English","VSH_Exp2","2016_Mar_24_1419",NA
"Recordings/tupi.wav","no","t","p","u","yes","i","tupi","Training","alveolar","TrainingItems",1,88,188,22,NA,NA,NA,NA,NA,NA,NA,NA,NA,NA,123,"M",21,60.9681517552,NA,"American English","VSH_Exp2","2016_Mar_24_1419",NA
"Recordings/pupu.wav","no","p","p","u","yes","u","pupu","Training","bilabial","TrainingItems",1,89,189,18,NA,NA,NA,NA,NA,NA,NA,NA,NA,NA,123,"M",21,60.9681517552,NA,"American English","VSH_Exp2","2016_Mar_24_1419",NA
"Recordings/fufu.wav","no","f","f","u","no","u","fufu","Training","bilabial","TrainingItems",1,90,190,3,NA,NA,NA,NA,NA,NA,NA,NA,NA,NA,123,"M",21,60.9681517552,NA,"American English","VSH_Exp2","2016_Mar_24_1419",NA
"Recordings/pati.wav","no","p","t","a","yes","i","pati","Training","bilabial","TrainingItems",1,91,191,96,NA,NA,NA,NA,NA,NA,NA,NA,NA,NA,123,"M",21,60.9681517552,NA,"American English","VSH_Exp2","2016_Mar_24_1419",NA
"Recordings/ziva.wav","yes","z","v","i","no","a","ziva","Training","alveolar","TrainingItems",1,92,192,95,NA,NA,NA,NA,NA,NA,NA,NA,NA,NA,123,"M",21,60.9681517552,NA,"American English","VSH_Exp2","2016_Mar_24_1419",NA
"Recordings/viva.wav","yes","v","v","i","no","a","viva","Training","bilabial","TrainingItems",1,93,193,64,NA,NA,NA,NA,NA,NA,NA,NA,NA,NA,123,"M",21,60.9681517552,NA,"American English","VSH_Exp2","2016_Mar_24_1419",NA
"Recordings/budu.wav","yes","b","d","u","yes","u","budu","Training","bilabial","TrainingItems",1,94,194,97,NA,NA,NA,NA,NA,NA,NA,NA,NA,NA,123,"M",21,60.9681517552,NA,"American English","VSH_Exp2","2016_Mar_24_1419",NA
"Recordings/bibu.wav","yes","b","b","i","yes","u","bibu","Training","bilabial","TrainingItems",1,95,195,9,NA,NA,NA,NA,NA,NA,NA,NA,NA,NA,123,"M",21,60.9681517552,NA,"American English","VSH_Exp2","2016_Mar_24_1419",NA
"Recordings/vizi.wav","yes","v","z","i","no","i","vizi","Training","bilabial","TrainingItems",1,96,196,86,NA,NA,NA,NA,NA,NA,NA,NA,NA,NA,123,"M",21,60.9681517552,NA,"American English","VSH_Exp2","2016_Mar_24_1419",NA
"Recordings/vaza.wav","yes","v","z","a","no","a","vaza","Training","bilabial","TrainingItems",1,97,197,36,NA,NA,NA,NA,NA,NA,NA,NA,NA,NA,123,"M",21,60.9681517552,NA,"American English","VSH_Exp2","2016_Mar_24_1419",NA
"Recordings/fifa.wav","no","f","f","i","no","a","fifa","Training","bilabial","TrainingItems",1,98,198,20,NA,NA,NA,NA,NA,NA,NA,NA,NA,NA,123,"M",21,60.9681517552,NA,"American English","VSH_Exp2","2016_Mar_24_1419",NA
"Recordings/didi.wav","yes","d","d","i","yes","i","didi","Training","alveolar","TrainingItems",1,99,199,56,NA,NA,NA,NA,NA,NA,NA,NA,NA,NA,123,"M",21,60.9681517552,NA,"American English","VSH_Exp2","2016_Mar_24_1419",NA
NA,NA,NA,NA,NA,NA,NA,NA,NA,NA,NA,NA,NA,NA,NA,NA,NA,NA,NA,NA,NA,"space",2.30324196815,NA,NA,123,"M",21,60.9681517552,NA,"American English","VSH_Exp2","2016_Mar_24_1419",NA
"Recordings/sifu.wav","no","s","f","i","no","u","sifu","Test","alveolar","NewConsTestStimuli",NA,NA,NA,NA,0,0,0,13,NA,NA,NA,NA,"Yes",6.792,123,"M",21,60.9681517552,NA,"American English","VSH_Exp2","2016_Mar_24_1419",NA
"Recordings/sifa.wav","no","s","f","i","no","a","sifa","Test","alveolar","NewConsTestStimuli",NA,NA,NA,NA,0,1,1,19,NA,NA,NA,NA,"Yes",3.457,123,"M",21,60.9681517552,NA,"American English","VSH_Exp2","2016_Mar_24_1419",NA
"Recordings/fita.wav","no","f","t","i","no","a","fita","Controls","bilabial","VoicingControls",NA,NA,NA,NA,0,2,2,43,NA,NA,NA,NA,"No",2.621,123,"M",21,60.9681517552,NA,"American English","VSH_Exp2","2016_Mar_24_1419",NA
"Recordings/vasi.wav","yes","v","s","a","no","i","vasi","Controls","bilabial","StopControls",NA,NA,NA,NA,0,3,3,31,NA,NA,NA,NA,"Yes",3.504,123,"M",21,60.9681517552,NA,"American English","VSH_Exp2","2016_Mar_24_1419",NA
"Recordings/difi.wav","yes","d","f","i","yes","i","difi","Controls","alveolar","NoPatternControls",NA,NA,NA,NA,0,4,4,57,NA,NA,NA,NA,"Yes",2.772,123,"M",21,60.9681517552,NA,"American English","VSH_Exp2","2016_Mar_24_1419",NA
"Recordings/duza.wav","yes","d","z","u","yes","a","duza","Controls","alveolar","VoicingControls",NA,NA,NA,NA,0,5,5,45,NA,NA,NA,NA,"Yes",2.206,123,"M",21,60.9681517552,NA,"American English","VSH_Exp2","2016_Mar_24_1419",NA
"Recordings/safa.wav","no","s","f","a","no","a","safa","Test","alveolar","NewConsTestStimuli",NA,NA,NA,NA,0,6,6,18,NA,NA,NA,NA,"Yes",3.589,123,"M",21,60.9681517552,NA,"American English","VSH_Exp2","2016_Mar_24_1419",NA
"Recordings/vuvi.wav","yes","v","v","u","no","i","vuvi","Test","bilabial","NewWordTestStimuli",NA,NA,NA,NA,0,7,7,28,NA,NA,NA,NA,"Yes",1.537,123,"M",21,60.9681517552,NA,"American English","VSH_Exp2","2016_Mar_24_1419",NA
"Recordings/sasa.wav","no","s","s","a","no","a","sasa","Test","alveolar","OldTestStimuli",NA,NA,NA,NA,0,8,8,1,NA,NA,NA,NA,"Yes",2.056,123,"M",21,60.9681517552,NA,"American English","VSH_Exp2","2016_Mar_24_1419",NA
"Recordings/sufi.wav","no","s","f","u","no","i","sufi","Test","alveolar","NewConsTestStimuli",NA,NA,NA,NA,0,9,9,16,NA,NA,NA,NA,"Yes",1.187,123,"M",21,60.9681517552,NA,"American English","VSH_Exp2","2016_Mar_24_1419",NA
"Recordings/zipa.wav","yes","z","p","i","no","a","zipa","Controls","alveolar","NoPatternControls",NA,NA,NA,NA,0,10,10,58,NA,NA,NA,NA,"No",3.039,123,"M",21,60.9681517552,NA,"American English","VSH_Exp2","2016_Mar_24_1419",NA
"Recordings/zivi.wav","yes","z","v","i","no","i","zivi","Test","alveolar","NewWordTestStimuli",NA,NA,NA,NA,0,11,11,26,NA,NA,NA,NA,"Yes",2.42,123,"M",21,60.9681517552,NA,"American English","VSH_Exp2","2016_Mar_24_1419",NA
"Recordings/bifu.wav","yes","b","f","i","yes","u","bifu","Controls","bilabial","NoPatternControls",NA,NA,NA,NA,0,12,12,59,NA,NA,NA,NA,"Yes",1.32,123,"M",21,60.9681517552,NA,"American English","VSH_Exp2","2016_Mar_24_1419",NA
"Recordings/vadi.wav","yes","v","d","a","no","i","vadi","Controls","bilabial","VoicingControls",NA,NA,NA,NA,0,13,13,41,NA,NA,NA,NA,"Yes",1.204,123,"M",21,60.9681517552,NA,"American English","VSH_Exp2","2016_Mar_24_1419",NA
"Recordings/sifi.wav","no","s","f","i","no","i","sifi","Test","alveolar","NewConsTestStimuli",NA,NA,NA,NA,0,14,14,11,NA,NA,NA,NA,"Yes",2.671,123,"M",21,60.9681517552,NA,"American English","VSH_Exp2","2016_Mar_24_1419",NA
"Recordings/duta.wav","yes","d","t","u","yes","a","duta","Controls","alveolar","StopControls",NA,NA,NA,NA,0,15,15,35,NA,NA,NA,NA,"Yes",2.187,123,"M",21,60.9681517552,NA,"American English","VSH_Exp2","2016_Mar_24_1419",NA
"Recordings/baba.wav","yes","b","b","a","yes","a","baba","Test","bilabial","NewWordTestStimuli",NA,NA,NA,NA,0,16,16,29,NA,NA,NA,NA,"Yes",2.072,123,"M",21,60.9681517552,NA,"American English","VSH_Exp2","2016_Mar_24_1419",NA
"Recordings/fada.wav","no","f","d","a","no","a","fada","Controls","bilabial","NoPatternControls",NA,NA,NA,NA,0,17,17,52,NA,NA,NA,NA,"Yes",2.606,123,"M",21,60.9681517552,NA,"American English","VSH_Exp2","2016_Mar_24_1419",NA
"Recordings/daba.wav","yes","d","b","a","yes","a","daba","Test","alveolar","NewWordTestStimuli",NA,NA,NA,NA,0,18,18,27,NA,NA,NA,NA,"Yes",1.138,123,"M",21,60.9681517552,NA,"American English","VSH_Exp2","2016_Mar_24_1419",NA
"Recordings/fivi.wav","no","f","v","i","no","i","fivi","Controls","bilabial","StopControls",NA,NA,NA,NA,0,19,19,33,NA,NA,NA,NA,"Yes",0.953,123,"M",21,60.9681517552,NA,"American English","VSH_Exp2","2016_Mar_24_1419",NA
"Recordings/biba.wav","yes","b","b","i","yes","a","biba","Test","bilabial","NewWordTestStimuli",NA,NA,NA,NA,0,20,20,20,NA,NA,NA,NA,"Yes",1.12,123,"M",21,60.9681517552,NA,"American English","VSH_Exp2","2016_Mar_24_1419",NA
"Recordings/fupi.wav","no","f","p","u","no","i","fupi","Controls","bilabial","VoicingControls",NA,NA,NA,NA,0,21,21,42,NA,NA,NA,NA,"Yes",1.672,123,"M",21,60.9681517552,NA,"American English","VSH_Exp2","2016_Mar_24_1419",NA
"Recordings/pupa.wav","no","p","p","u","yes","a","pupa","Test","bilabial","NewWordTestStimuli",NA,NA,NA,NA,0,22,22,22,NA,NA,NA,NA,"Yes",1.22,123,"M",21,60.9681517552,NA,"American English","VSH_Exp2","2016_Mar_24_1419",NA
"Recordings/dufi.wav","yes","d","f","u","yes","i","dufi","Controls","alveolar","NoPatternControls",NA,NA,NA,NA,0,23,23,55,NA,NA,NA,NA,"Yes",1.736,123,"M",21,60.9681517552,NA,"American English","VSH_Exp2","2016_Mar_24_1419",NA
"Recordings/faba.wav","no","f","b","a","no","a","faba","Controls","bilabial","NoPatternControls",NA,NA,NA,NA,0,24,24,53,NA,NA,NA,NA,"Yes",2.287,123,"M",21,60.9681517552,NA,"American English","VSH_Exp2","2016_Mar_24_1419",NA
"Recordings/vuzi.wav","yes","v","z","u","no","i","vuzi","Test","bilabial","OldTestStimuli",NA,NA,NA,NA,0,25,25,4,NA,NA,NA,NA,"Yes",0.786,123,"M",21,60.9681517552,NA,"American English","VSH_Exp2","2016_Mar_24_1419",NA
"Recordings/bata.wav","yes","b","t","a","yes","a","bata","Controls","bilabial","StopControls",NA,NA,NA,NA,0,26,26,39,NA,NA,NA,NA,"Yes",1.219,123,"M",21,60.9681517552,NA,"American English","VSH_Exp2","2016_Mar_24_1419",NA
"Recordings/duda.wav","yes","d","d","u","yes","a","duda","Test","alveolar","OldTestStimuli",NA,NA,NA,NA,0,27,27,6,NA,NA,NA,NA,"Yes",2.538,123,"M",21,60.9681517552,NA,"American English","VSH_Exp2","2016_Mar_24_1419",NA
"Recordings/tipa.wav","no","t","p","i","yes","a","tipa","Test","alveolar","NewWordTestStimuli",NA,NA,NA,NA,0,28,28,21,NA,NA,NA,NA,"Yes",2.105,123,"M",21,60.9681517552,NA,"American English","VSH_Exp2","2016_Mar_24_1419",NA
"Recordings/tata.wav","no","t","t","a","yes","a","tata","Test","alveolar","NewWordTestStimuli",NA,NA,NA,NA,0,29,29,24,NA,NA,NA,NA,"No",1.77,123,"M",21,60.9681517552,NA,"American English","VSH_Exp2","2016_Mar_24_1419",NA
"Recordings/bafa.wav","yes","b","f","a","yes","a","bafa","Controls","bilabial","NoPatternControls",NA,NA,NA,NA,0,30,30,56,NA,NA,NA,NA,"Yes",2.621,123,"M",21,60.9681517552,NA,"American English","VSH_Exp2","2016_Mar_24_1419",NA
"Recordings/vapi.wav","yes","v","p","a","no","i","vapi","Controls","bilabial","NoPatternControls",NA,NA,NA,NA,0,31,31,54,NA,NA,NA,NA,"Yes",2.304,123,"M",21,60.9681517552,NA,"American English","VSH_Exp2","2016_Mar_24_1419",NA
"Recordings/vuvu.wav","yes","v","v","u","no","u","vuvu","Test","bilabial","OldTestStimuli",NA,NA,NA,NA,0,32,32,8,NA,NA,NA,NA,"Yes",2.038,123,"M",21,60.9681517552,NA,"American English","VSH_Exp2","2016_Mar_24_1419",NA
"Recordings/vata.wav","yes","v","t","a","no","a","vata","Controls","bilabial","NoPatternControls",NA,NA,NA,NA,0,33,33,51,NA,NA,NA,NA,"Yes",1.253,123,"M",21,60.9681517552,NA,"American English","VSH_Exp2","2016_Mar_24_1419",NA
"Recordings/zidi.wav","yes","z","d","i","no","i","zidi","Controls","alveolar","VoicingControls",NA,NA,NA,NA,0,34,34,48,NA,NA,NA,NA,"Yes",2.705,123,"M",21,60.9681517552,NA,"American English","VSH_Exp2","2016_Mar_24_1419",NA
"Recordings/safi.wav","no","s","f","a","no","i","safi","Test","alveolar","NewConsTestStimuli",NA,NA,NA,NA,0,35,35,14,NA,NA,NA,NA,"No",3.006,123,"M",21,60.9681517552,NA,"American English","VSH_Exp2","2016_Mar_24_1419",NA
"Recordings/zisi.wav","yes","z","s","i","no","i","zisi","Controls","alveolar","StopControls",NA,NA,NA,NA,0,36,36,38,NA,NA,NA,NA,"No",1.605,123,"M",21,60.9681517552,NA,"American English","VSH_Exp2","2016_Mar_24_1419",NA
"Recordings/zazu.wav","yes","z","z","a","no","u","zazu","Test","alveolar","OldTestStimuli",NA,NA,NA,NA,0,37,37,2,NA,NA,NA,NA,"Yes",1.705,123,"M",21,60.9681517552,NA,"American English","VSH_Exp2","2016_Mar_24_1419",NA
"Recordings/bisu.wav","yes","b","s","i","yes","u","bisu","Controls","bilabial","NoPatternControls",NA,NA,NA,NA,0,38,38,50,NA,NA,NA,NA,"Yes",1.087,123,"M",21,60.9681517552,NA,"American English","VSH_Exp2","2016_Mar_24_1419",NA
"Recordings/dita.wav","yes","d","t","i","yes","a","dita","Controls","alveolar","StopControls",NA,NA,NA,NA,0,39,39,37,NA,NA,NA,NA,"Yes",1.571,123,"M",21,60.9681517552,NA,"American English","VSH_Exp2","2016_Mar_24_1419",NA
"Recordings/diza.wav","yes","d","z","i","yes","a","diza","Controls","alveolar","VoicingControls",NA,NA,NA,NA,0,40,40,47,NA,NA,NA,NA,"Yes",0.804,123,"M",21,60.9681517552,NA,"American English","VSH_Exp2","2016_Mar_24_1419",NA
"Recordings/biti.wav","yes","b","t","i","yes","i","biti","Controls","bilabial","StopControls",NA,NA,NA,NA,0,41,41,36,NA,NA,NA,NA,"Yes",1.321,123,"M",21,60.9681517552,NA,"American English","VSH_Exp2","2016_Mar_24_1419",NA
"Recordings/bizi.wav","yes","b","z","i","yes","i","bizi","Controls","bilabial","VoicingControls",NA,NA,NA,NA,0,42,42,46,NA,NA,NA,NA,"Yes",1.004,123,"M",21,60.9681517552,NA,"American English","VSH_Exp2","2016_Mar_24_1419",NA
"Recordings/bivi.wav","yes","b","v","i","yes","i","bivi","Controls","bilabial","VoicingControls",NA,NA,NA,NA,0,43,43,40,NA,NA,NA,NA,"Yes",1.038,123,"M",21,60.9681517552,NA,"American English","VSH_Exp2","2016_Mar_24_1419",NA
"Recordings/fifu.wav","no","f","f","i","no","u","fifu","Test","bilabial","OldTestStimuli",NA,NA,NA,NA,0,44,44,9,NA,NA,NA,NA,"Yes",1.254,123,"M",21,60.9681517552,NA,"American English","VSH_Exp2","2016_Mar_24_1419",NA
"Recordings/dida.wav","yes","d","d","i","yes","a","dida","Test","alveolar","NewWordTestStimuli",NA,NA,NA,NA,0,45,45,25,NA,NA,NA,NA,"Yes",1.319,123,"M",21,60.9681517552,NA,"American English","VSH_Exp2","2016_Mar_24_1419",NA
"Recordings/bubu.wav","yes","b","b","u","yes","u","bubu","Test","bilabial","OldTestStimuli",NA,NA,NA,NA,0,46,46,3,NA,NA,NA,NA,"Yes",2.487,123,"M",21,60.9681517552,NA,"American English","VSH_Exp2","2016_Mar_24_1419",NA
"Recordings/fizu.wav","no","f","z","i","no","u","fizu","Controls","bilabial","StopControls",NA,NA,NA,NA,0,47,47,32,NA,NA,NA,NA,"Yes",0.771,123,"M",21,60.9681517552,NA,"American English","VSH_Exp2","2016_Mar_24_1419",NA
"Recordings/baza.wav","yes","b","z","a","yes","a","baza","Controls","bilabial","VoicingControls",NA,NA,NA,NA,0,48,48,49,NA,NA,NA,NA,"Yes",0.635,123,"M",21,60.9681517552,NA,"American English","VSH_Exp2","2016_Mar_24_1419",NA
"Recordings/vusi.wav","yes","v","s","u","no","i","vusi","Controls","bilabial","StopControls",NA,NA,NA,NA,0,49,49,34,NA,NA,NA,NA,"No",2.771,123,"M",21,60.9681517552,NA,"American English","VSH_Exp2","2016_Mar_24_1419",NA
"Recordings/fafu.wav","no","f","f","a","no","u","fafu","Test","bilabial","NewWordTestStimuli",NA,NA,NA,NA,0,50,50,23,NA,NA,NA,NA,"Yes",1.503,123,"M",21,60.9681517552,NA,"American English","VSH_Exp2","2016_Mar_24_1419",NA
"Recordings/bipi.wav","yes","b","p","i","yes","i","bipi","Controls","bilabial","StopControls",NA,NA,NA,NA,0,51,51,30,NA,NA,NA,NA,"No",2.388,123,"M",21,60.9681517552,NA,"American English","VSH_Exp2","2016_Mar_24_1419",NA
"Recordings/pupu.wav","no","p","p","u","yes","u","pupu","Test","bilabial","OldTestStimuli",NA,NA,NA,NA,0,52,52,5,NA,NA,NA,NA,"Yes",2.321,123,"M",21,60.9681517552,NA,"American English","VSH_Exp2","2016_Mar_24_1419",NA
"Recordings/fisu.wav","no","f","s","i","no","u","fisu","Test","bilabial","NewConsTestStimuli",NA,NA,NA,NA,0,53,53,15,NA,NA,NA,NA,"Yes",3.523,123,"M",21,60.9681517552,NA,"American English","VSH_Exp2","2016_Mar_24_1419",NA
"Recordings/zuzu.wav","yes","z","z","u","no","u","zuzu","Test","alveolar","OldTestStimuli",NA,NA,NA,NA,0,54,54,7,NA,NA,NA,NA,"Yes",2.372,123,"M",21,60.9681517552,NA,"American English","VSH_Exp2","2016_Mar_24_1419",NA
"Recordings/dabu.wav","yes","d","b","a","yes","u","dabu","Test","alveolar","OldTestStimuli",NA,NA,NA,NA,0,55,55,0,NA,NA,NA,NA,"Yes",0.82,123,"M",21,60.9681517552,NA,"American English","VSH_Exp2","2016_Mar_24_1419",NA
"Recordings/fusa.wav","no","f","s","u","no","a","fusa","Test","bilabial","NewConsTestStimuli",NA,NA,NA,NA,0,56,56,12,NA,NA,NA,NA,"Yes",1.938,123,"M",21,60.9681517552,NA,"American English","VSH_Exp2","2016_Mar_24_1419",NA
"Recordings/fisi.wav","no","f","s","i","no","i","fisi","Test","bilabial","NewConsTestStimuli",NA,NA,NA,NA,0,57,57,17,NA,NA,NA,NA,"No",3.89,123,"M",21,60.9681517552,NA,"American English","VSH_Exp2","2016_Mar_24_1419",NA
"Recordings/fisa.wav","no","f","s","i","no","a","fisa","Test","bilabial","NewConsTestStimuli",NA,NA,NA,NA,0,58,58,10,NA,NA,NA,NA,"Yes",3.038,123,"M",21,60.9681517552,NA,"American English","VSH_Exp2","2016_Mar_24_1419",NA
"Recordings/vudi.wav","yes","v","d","u","no","i","vudi","Controls","bilabial","VoicingControls",NA,NA,NA,NA,0,59,59,44,NA,NA,NA,NA,"No",2.121,123,"M",21,60.9681517552,NA,"American English","VSH_Exp2","2016_Mar_24_1419",NA
