"SOUND","VOICING","SEGMENT","SEGMENT3","SEGMENT2","STOP","SEGMENT4","STIMULUS","GENERAL_TYPE","PLACE","TYPE","trials.thisRepN","trials.thisTrialN","trials.thisN","trials.thisIndex","trials_2.thisRepN","trials_2.thisTrialN","trials_2.thisN","trials_2.thisIndex","SpaceBar.keys","SpaceBar.rt","key_resp_2.keys","key_resp_2.rt","rating.response","rating.rt","participant","Gender","Age","frameRate","OtherLanguages","NativeLanguage","expName","date","X34"
NA,NA,NA,NA,NA,NA,NA,NA,NA,NA,NA,NA,NA,NA,NA,NA,NA,NA,NA,"space",2.47116589546,NA,NA,NA,NA,124,FALSE,20,59.9168310665,NA,"American English","VSH_Exp2","2016_Mar_24_1419",NA
"Recordings/didu.wav","yes","d","d","i","yes","u","didu","Training","alveolar","TrainingItems",0,0,0,48,NA,NA,NA,NA,NA,NA,NA,NA,NA,NA,124,FALSE,20,59.9168310665,NA,"American English","VSH_Exp2","2016_Mar_24_1419",NA
"Recordings/pupa.wav","no","p","p","u","yes","a","pupa","Training","bilabial","TrainingItems",0,1,1,84,NA,NA,NA,NA,NA,NA,NA,NA,NA,NA,124,FALSE,20,59.9168310665,NA,"American English","VSH_Exp2","2016_Mar_24_1419",NA
"Recordings/susi.wav","no","s","s","u","no","i","susi","Training","alveolar","TrainingItems",0,2,2,36,NA,NA,NA,NA,NA,NA,NA,NA,NA,NA,124,FALSE,20,59.9168310665,NA,"American English","VSH_Exp2","2016_Mar_24_1419",NA
"Recordings/dudu.wav","yes","d","d","u","yes","u","dudu","Training","alveolar","TrainingItems",0,3,3,2,NA,NA,NA,NA,NA,NA,NA,NA,NA,NA,124,FALSE,20,59.9168310665,NA,"American English","VSH_Exp2","2016_Mar_24_1419",NA
"Recordings/tutu.wav","no","t","t","u","yes","u","tutu","Training","alveolar","TrainingItems",0,4,4,18,NA,NA,NA,NA,NA,NA,NA,NA,NA,NA,124,FALSE,20,59.9168310665,NA,"American English","VSH_Exp2","2016_Mar_24_1419",NA
"Recordings/didi.wav","yes","d","d","i","yes","i","didi","Training","alveolar","TrainingItems",0,5,5,8,NA,NA,NA,NA,NA,NA,NA,NA,NA,NA,124,FALSE,20,59.9168310665,NA,"American English","VSH_Exp2","2016_Mar_24_1419",NA
"Recordings/fufu.wav","no","f","f","u","no","u","fufu","Training","bilabial","TrainingItems",0,6,6,97,NA,NA,NA,NA,NA,NA,NA,NA,NA,NA,124,FALSE,20,59.9168310665,NA,"American English","VSH_Exp2","2016_Mar_24_1419",NA
"Recordings/dada.wav","yes","d","d","a","yes","a","dada","Training","alveolar","TrainingItems",0,7,7,50,NA,NA,NA,NA,NA,NA,NA,NA,NA,NA,124,FALSE,20,59.9168310665,NA,"American English","VSH_Exp2","2016_Mar_24_1419",NA
"Recordings/zazu.wav","yes","z","z","a","no","u","zazu","Training","alveolar","TrainingItems",0,8,8,86,NA,NA,NA,NA,NA,NA,NA,NA,NA,NA,124,FALSE,20,59.9168310665,NA,"American English","VSH_Exp2","2016_Mar_24_1419",NA
"Recordings/babi.wav","yes","b","b","a","yes","i","babi","Training","bilabial","TrainingItems",0,9,9,28,NA,NA,NA,NA,NA,NA,NA,NA,NA,NA,124,FALSE,20,59.9168310665,NA,"American English","VSH_Exp2","2016_Mar_24_1419",NA
"Recordings/babu.wav","yes","b","b","a","yes","u","babu","Training","bilabial","TrainingItems",0,10,10,95,NA,NA,NA,NA,NA,NA,NA,NA,NA,NA,124,FALSE,20,59.9168310665,NA,"American English","VSH_Exp2","2016_Mar_24_1419",NA
"Recordings/vavu.wav","yes","v","v","a","no","u","vavu","Training","bilabial","TrainingItems",0,11,11,68,NA,NA,NA,NA,NA,NA,NA,NA,NA,NA,124,FALSE,20,59.9168310665,NA,"American English","VSH_Exp2","2016_Mar_24_1419",NA
"Recordings/tapi.wav","no","t","p","a","yes","i","tapi","Training","alveolar","TrainingItems",0,12,12,90,NA,NA,NA,NA,NA,NA,NA,NA,NA,NA,124,FALSE,20,59.9168310665,NA,"American English","VSH_Exp2","2016_Mar_24_1419",NA
"Recordings/susu.wav","no","s","s","u","no","u","susu","Training","alveolar","TrainingItems",0,13,13,79,NA,NA,NA,NA,NA,NA,NA,NA,NA,NA,124,FALSE,20,59.9168310665,NA,"American English","VSH_Exp2","2016_Mar_24_1419",NA
"Recordings/tuta.wav","no","t","t","u","yes","a","tuta","Training","alveolar","TrainingItems",0,14,14,99,NA,NA,NA,NA,NA,NA,NA,NA,NA,NA,124,FALSE,20,59.9168310665,NA,"American English","VSH_Exp2","2016_Mar_24_1419",NA
"Recordings/badu.wav","yes","b","d","a","yes","u","badu","Training","bilabial","TrainingItems",0,15,15,9,NA,NA,NA,NA,NA,NA,NA,NA,NA,NA,124,FALSE,20,59.9168310665,NA,"American English","VSH_Exp2","2016_Mar_24_1419",NA
"Recordings/titi.wav","no","t","t","i","yes","i","titi","Training","alveolar","TrainingItems",0,16,16,43,NA,NA,NA,NA,NA,NA,NA,NA,NA,NA,124,FALSE,20,59.9168310665,NA,"American English","VSH_Exp2","2016_Mar_24_1419",NA
"Recordings/dibu.wav","yes","d","b","i","yes","u","dibu","Training","alveolar","TrainingItems",0,17,17,69,NA,NA,NA,NA,NA,NA,NA,NA,NA,NA,124,FALSE,20,59.9168310665,NA,"American English","VSH_Exp2","2016_Mar_24_1419",NA
"Recordings/dabi.wav","yes","d","b","a","yes","i","dabi","Training","alveolar","TrainingItems",0,18,18,52,NA,NA,NA,NA,NA,NA,NA,NA,NA,NA,124,FALSE,20,59.9168310665,NA,"American English","VSH_Exp2","2016_Mar_24_1419",NA
"Recordings/fufi.wav","no","f","f","u","no","i","fufi","Training","bilabial","TrainingItems",0,19,19,31,NA,NA,NA,NA,NA,NA,NA,NA,NA,NA,124,FALSE,20,59.9168310665,NA,"American English","VSH_Exp2","2016_Mar_24_1419",NA
"Recordings/buda.wav","yes","b","d","u","yes","a","buda","Training","bilabial","TrainingItems",0,20,20,6,NA,NA,NA,NA,NA,NA,NA,NA,NA,NA,124,FALSE,20,59.9168310665,NA,"American English","VSH_Exp2","2016_Mar_24_1419",NA
"Recordings/fasa.wav","no","f","s","a","no","a","fasa","Training","bilabial","TrainingItems",0,21,21,64,NA,NA,NA,NA,NA,NA,NA,NA,NA,NA,124,FALSE,20,59.9168310665,NA,"American English","VSH_Exp2","2016_Mar_24_1419",NA
"Recordings/sufa.wav","no","s","f","u","no","a","sufa","Training","alveolar","TrainingItems",0,22,22,70,NA,NA,NA,NA,NA,NA,NA,NA,NA,NA,124,FALSE,20,59.9168310665,NA,"American English","VSH_Exp2","2016_Mar_24_1419",NA
"Recordings/fifu.wav","no","f","f","i","no","u","fifu","Training","bilabial","TrainingItems",0,23,23,24,NA,NA,NA,NA,NA,NA,NA,NA,NA,NA,124,FALSE,20,59.9168310665,NA,"American English","VSH_Exp2","2016_Mar_24_1419",NA
"Recordings/tapu.wav","no","t","p","a","yes","u","tapu","Training","alveolar","TrainingItems",0,24,24,76,NA,NA,NA,NA,NA,NA,NA,NA,NA,NA,124,FALSE,20,59.9168310665,NA,"American English","VSH_Exp2","2016_Mar_24_1419",NA
"Recordings/fusu.wav","no","f","s","u","no","u","fusu","Training","bilabial","TrainingItems",0,25,25,45,NA,NA,NA,NA,NA,NA,NA,NA,NA,NA,124,FALSE,20,59.9168310665,NA,"American English","VSH_Exp2","2016_Mar_24_1419",NA
"Recordings/viva.wav","yes","v","v","i","no","a","viva","Training","bilabial","TrainingItems",0,26,26,26,NA,NA,NA,NA,NA,NA,NA,NA,NA,NA,124,FALSE,20,59.9168310665,NA,"American English","VSH_Exp2","2016_Mar_24_1419",NA
"Recordings/vivu.wav","yes","v","v","i","no","u","vivu","Training","bilabial","TrainingItems",0,27,27,23,NA,NA,NA,NA,NA,NA,NA,NA,NA,NA,124,FALSE,20,59.9168310665,NA,"American English","VSH_Exp2","2016_Mar_24_1419",NA
"Recordings/sufi.wav","no","s","f","u","no","i","sufi","Training","alveolar","TrainingItems",0,28,28,39,NA,NA,NA,NA,NA,NA,NA,NA,NA,NA,124,FALSE,20,59.9168310665,NA,"American English","VSH_Exp2","2016_Mar_24_1419",NA
"Recordings/zizu.wav","yes","z","z","i","no","u","zizu","Training","alveolar","TrainingItems",0,29,29,61,NA,NA,NA,NA,NA,NA,NA,NA,NA,NA,124,FALSE,20,59.9168310665,NA,"American English","VSH_Exp2","2016_Mar_24_1419",NA
"Recordings/fasu.wav","no","f","s","a","no","u","fasu","Training","bilabial","TrainingItems",0,30,30,41,NA,NA,NA,NA,NA,NA,NA,NA,NA,NA,124,FALSE,20,59.9168310665,NA,"American English","VSH_Exp2","2016_Mar_24_1419",NA
"Recordings/fafu.wav","no","f","f","a","no","u","fafu","Training","bilabial","TrainingItems",0,31,31,42,NA,NA,NA,NA,NA,NA,NA,NA,NA,NA,124,FALSE,20,59.9168310665,NA,"American English","VSH_Exp2","2016_Mar_24_1419",NA
"Recordings/dibi.wav","yes","d","b","i","yes","i","dibi","Training","alveolar","TrainingItems",0,32,32,22,NA,NA,NA,NA,NA,NA,NA,NA,NA,NA,124,FALSE,20,59.9168310665,NA,"American English","VSH_Exp2","2016_Mar_24_1419",NA
"Recordings/tupa.wav","no","t","p","u","yes","a","tupa","Training","alveolar","TrainingItems",0,33,33,73,NA,NA,NA,NA,NA,NA,NA,NA,NA,NA,124,FALSE,20,59.9168310665,NA,"American English","VSH_Exp2","2016_Mar_24_1419",NA
"Recordings/biba.wav","yes","b","b","i","yes","a","biba","Training","bilabial","TrainingItems",0,34,34,59,NA,NA,NA,NA,NA,NA,NA,NA,NA,NA,124,FALSE,20,59.9168310665,NA,"American English","VSH_Exp2","2016_Mar_24_1419",NA
"Recordings/budi.wav","yes","b","d","u","yes","i","budi","Training","bilabial","TrainingItems",0,35,35,80,NA,NA,NA,NA,NA,NA,NA,NA,NA,NA,124,FALSE,20,59.9168310665,NA,"American English","VSH_Exp2","2016_Mar_24_1419",NA
"Recordings/tapa.wav","no","t","p","a","yes","a","tapa","Training","alveolar","TrainingItems",0,36,36,85,NA,NA,NA,NA,NA,NA,NA,NA,NA,NA,124,FALSE,20,59.9168310665,NA,"American English","VSH_Exp2","2016_Mar_24_1419",NA
"Recordings/safa.wav","no","s","f","a","no","a","safa","Training","alveolar","TrainingItems",0,37,37,98,NA,NA,NA,NA,NA,NA,NA,NA,NA,NA,124,FALSE,20,59.9168310665,NA,"American English","VSH_Exp2","2016_Mar_24_1419",NA
"Recordings/tati.wav","no","t","t","a","yes","i","tati","Training","alveolar","TrainingItems",0,38,38,65,NA,NA,NA,NA,NA,NA,NA,NA,NA,NA,124,FALSE,20,59.9168310665,NA,"American English","VSH_Exp2","2016_Mar_24_1419",NA
"Recordings/tata.wav","no","t","t","a","yes","a","tata","Training","alveolar","TrainingItems",0,39,39,4,NA,NA,NA,NA,NA,NA,NA,NA,NA,NA,124,FALSE,20,59.9168310665,NA,"American English","VSH_Exp2","2016_Mar_24_1419",NA
"Recordings/tatu.wav","no","t","t","a","yes","u","tatu","Training","alveolar","TrainingItems",0,40,40,81,NA,NA,NA,NA,NA,NA,NA,NA,NA,NA,124,FALSE,20,59.9168310665,NA,"American English","VSH_Exp2","2016_Mar_24_1419",NA
"Recordings/dabu.wav","yes","d","b","a","yes","u","dabu","Training","alveolar","TrainingItems",0,41,41,91,NA,NA,NA,NA,NA,NA,NA,NA,NA,NA,124,FALSE,20,59.9168310665,NA,"American English","VSH_Exp2","2016_Mar_24_1419",NA
"Recordings/zuza.wav","yes","z","z","u","no","a","zuza","Training","alveolar","TrainingItems",0,42,42,77,NA,NA,NA,NA,NA,NA,NA,NA,NA,NA,124,FALSE,20,59.9168310665,NA,"American English","VSH_Exp2","2016_Mar_24_1419",NA
"Recordings/fisi.wav","no","f","s","i","no","i","fisi","Training","bilabial","TrainingItems",0,43,43,60,NA,NA,NA,NA,NA,NA,NA,NA,NA,NA,124,FALSE,20,59.9168310665,NA,"American English","VSH_Exp2","2016_Mar_24_1419",NA
"Recordings/sasi.wav","no","s","s","a","no","i","sasi","Training","alveolar","TrainingItems",0,44,44,34,NA,NA,NA,NA,NA,NA,NA,NA,NA,NA,124,FALSE,20,59.9168310665,NA,"American English","VSH_Exp2","2016_Mar_24_1419",NA
"Recordings/dida.wav","yes","d","d","i","yes","a","dida","Training","alveolar","TrainingItems",0,45,45,71,NA,NA,NA,NA,NA,NA,NA,NA,NA,NA,124,FALSE,20,59.9168310665,NA,"American English","VSH_Exp2","2016_Mar_24_1419",NA
"Recordings/fifa.wav","no","f","f","i","no","a","fifa","Training","bilabial","TrainingItems",0,46,46,20,NA,NA,NA,NA,NA,NA,NA,NA,NA,NA,124,FALSE,20,59.9168310665,NA,"American English","VSH_Exp2","2016_Mar_24_1419",NA
"Recordings/vava.wav","yes","v","v","a","no","a","vava","Training","bilabial","TrainingItems",0,47,47,35,NA,NA,NA,NA,NA,NA,NA,NA,NA,NA,124,FALSE,20,59.9168310665,NA,"American English","VSH_Exp2","2016_Mar_24_1419",NA
"Recordings/ziza.wav","yes","z","z","i","no","a","ziza","Training","alveolar","TrainingItems",0,48,48,11,NA,NA,NA,NA,NA,NA,NA,NA,NA,NA,124,FALSE,20,59.9168310665,NA,"American English","VSH_Exp2","2016_Mar_24_1419",NA
"Recordings/pata.wav","no","p","t","a","yes","a","pata","Training","bilabial","TrainingItems",0,49,49,49,NA,NA,NA,NA,NA,NA,NA,NA,NA,NA,124,FALSE,20,59.9168310665,NA,"American English","VSH_Exp2","2016_Mar_24_1419",NA
"Recordings/sisa.wav","no","s","s","i","no","a","sisa","Training","alveolar","TrainingItems",0,50,50,27,NA,NA,NA,NA,NA,NA,NA,NA,NA,NA,124,FALSE,20,59.9168310665,NA,"American English","VSH_Exp2","2016_Mar_24_1419",NA
"Recordings/pupu.wav","no","p","p","u","yes","u","pupu","Training","bilabial","TrainingItems",0,51,51,12,NA,NA,NA,NA,NA,NA,NA,NA,NA,NA,124,FALSE,20,59.9168310665,NA,"American English","VSH_Exp2","2016_Mar_24_1419",NA
"Recordings/baba.wav","yes","b","b","a","yes","a","baba","Training","bilabial","TrainingItems",0,52,52,3,NA,NA,NA,NA,NA,NA,NA,NA,NA,NA,124,FALSE,20,59.9168310665,NA,"American English","VSH_Exp2","2016_Mar_24_1419",NA
"Recordings/papu.wav","no","p","p","a","yes","u","papu","Training","bilabial","TrainingItems",0,53,53,51,NA,NA,NA,NA,NA,NA,NA,NA,NA,NA,124,FALSE,20,59.9168310665,NA,"American English","VSH_Exp2","2016_Mar_24_1419",NA
"Recordings/pipu.wav","no","p","p","i","yes","u","pipu","Training","bilabial","TrainingItems",0,54,54,0,NA,NA,NA,NA,NA,NA,NA,NA,NA,NA,124,FALSE,20,59.9168310665,NA,"American English","VSH_Exp2","2016_Mar_24_1419",NA
"Recordings/patu.wav","no","p","t","a","yes","u","patu","Training","bilabial","TrainingItems",0,55,55,38,NA,NA,NA,NA,NA,NA,NA,NA,NA,NA,124,FALSE,20,59.9168310665,NA,"American English","VSH_Exp2","2016_Mar_24_1419",NA
"Recordings/buba.wav","yes","b","b","u","yes","a","buba","Training","bilabial","TrainingItems",0,56,56,88,NA,NA,NA,NA,NA,NA,NA,NA,NA,NA,124,FALSE,20,59.9168310665,NA,"American English","VSH_Exp2","2016_Mar_24_1419",NA
"Recordings/tipa.wav","no","t","p","i","yes","a","tipa","Training","alveolar","TrainingItems",0,57,57,74,NA,NA,NA,NA,NA,NA,NA,NA,NA,NA,124,FALSE,20,59.9168310665,NA,"American English","VSH_Exp2","2016_Mar_24_1419",NA
"Recordings/dudi.wav","yes","d","d","u","yes","i","dudi","Training","alveolar","TrainingItems",0,58,58,32,NA,NA,NA,NA,NA,NA,NA,NA,NA,NA,124,FALSE,20,59.9168310665,NA,"American English","VSH_Exp2","2016_Mar_24_1419",NA
"Recordings/safi.wav","no","s","f","a","no","i","safi","Training","alveolar","TrainingItems",0,59,59,57,NA,NA,NA,NA,NA,NA,NA,NA,NA,NA,124,FALSE,20,59.9168310665,NA,"American English","VSH_Exp2","2016_Mar_24_1419",NA
"Recordings/fafa.wav","no","f","f","a","no","a","fafa","Training","bilabial","TrainingItems",0,60,60,37,NA,NA,NA,NA,NA,NA,NA,NA,NA,NA,124,FALSE,20,59.9168310665,NA,"American English","VSH_Exp2","2016_Mar_24_1419",NA
"Recordings/pipa.wav","no","p","p","i","yes","a","pipa","Training","bilabial","TrainingItems",0,61,61,66,NA,NA,NA,NA,NA,NA,NA,NA,NA,NA,124,FALSE,20,59.9168310665,NA,"American English","VSH_Exp2","2016_Mar_24_1419",NA
"Recordings/fifi.wav","no","f","f","i","no","i","fifi","Training","bilabial","TrainingItems",0,62,62,46,NA,NA,NA,NA,NA,NA,NA,NA,NA,NA,124,FALSE,20,59.9168310665,NA,"American English","VSH_Exp2","2016_Mar_24_1419",NA
"Recordings/fufa.wav","no","f","f","u","no","a","fufa","Training","bilabial","TrainingItems",0,63,63,92,NA,NA,NA,NA,NA,NA,NA,NA,NA,NA,124,FALSE,20,59.9168310665,NA,"American English","VSH_Exp2","2016_Mar_24_1419",NA
"Recordings/fisa.wav","no","f","s","i","no","a","fisa","Training","bilabial","TrainingItems",0,64,64,17,NA,NA,NA,NA,NA,NA,NA,NA,NA,NA,124,FALSE,20,59.9168310665,NA,"American English","VSH_Exp2","2016_Mar_24_1419",NA
"Recordings/sasa.wav","no","s","s","a","no","a","sasa","Training","alveolar","TrainingItems",0,65,65,83,NA,NA,NA,NA,NA,NA,NA,NA,NA,NA,124,FALSE,20,59.9168310665,NA,"American English","VSH_Exp2","2016_Mar_24_1419",NA
"Recordings/bubu.wav","yes","b","b","u","yes","u","bubu","Training","bilabial","TrainingItems",0,66,66,21,NA,NA,NA,NA,NA,NA,NA,NA,NA,NA,124,FALSE,20,59.9168310665,NA,"American English","VSH_Exp2","2016_Mar_24_1419",NA
"Recordings/fafi.wav","no","f","f","a","no","i","fafi","Training","bilabial","TrainingItems",0,67,67,94,NA,NA,NA,NA,NA,NA,NA,NA,NA,NA,124,FALSE,20,59.9168310665,NA,"American English","VSH_Exp2","2016_Mar_24_1419",NA
"Recordings/titu.wav","no","t","t","i","yes","u","titu","Training","alveolar","TrainingItems",0,68,68,67,NA,NA,NA,NA,NA,NA,NA,NA,NA,NA,124,FALSE,20,59.9168310665,NA,"American English","VSH_Exp2","2016_Mar_24_1419",NA
"Recordings/vavi.wav","yes","v","v","a","no","i","vavi","Training","bilabial","TrainingItems",0,69,69,44,NA,NA,NA,NA,NA,NA,NA,NA,NA,NA,124,FALSE,20,59.9168310665,NA,"American English","VSH_Exp2","2016_Mar_24_1419",NA
"Recordings/dubi.wav","yes","d","b","u","yes","i","dubi","Training","alveolar","TrainingItems",0,70,70,78,NA,NA,NA,NA,NA,NA,NA,NA,NA,NA,124,FALSE,20,59.9168310665,NA,"American English","VSH_Exp2","2016_Mar_24_1419",NA
"Recordings/fisu.wav","no","f","s","i","no","u","fisu","Training","bilabial","TrainingItems",0,71,71,87,NA,NA,NA,NA,NA,NA,NA,NA,NA,NA,124,FALSE,20,59.9168310665,NA,"American English","VSH_Exp2","2016_Mar_24_1419",NA
"Recordings/dadi.wav","yes","d","d","a","yes","i","dadi","Training","alveolar","TrainingItems",0,72,72,56,NA,NA,NA,NA,NA,NA,NA,NA,NA,NA,124,FALSE,20,59.9168310665,NA,"American English","VSH_Exp2","2016_Mar_24_1419",NA
"Recordings/duba.wav","yes","d","b","u","yes","a","duba","Training","alveolar","TrainingItems",0,73,73,62,NA,NA,NA,NA,NA,NA,NA,NA,NA,NA,124,FALSE,20,59.9168310665,NA,"American English","VSH_Exp2","2016_Mar_24_1419",NA
"Recordings/badi.wav","yes","b","d","a","yes","i","badi","Training","bilabial","TrainingItems",0,74,74,7,NA,NA,NA,NA,NA,NA,NA,NA,NA,NA,124,FALSE,20,59.9168310665,NA,"American English","VSH_Exp2","2016_Mar_24_1419",NA
"Recordings/bada.wav","yes","b","d","a","yes","a","bada","Training","bilabial","TrainingItems",0,75,75,1,NA,NA,NA,NA,NA,NA,NA,NA,NA,NA,124,FALSE,20,59.9168310665,NA,"American English","VSH_Exp2","2016_Mar_24_1419",NA
"Recordings/sisu.wav","no","s","s","i","no","u","sisu","Training","alveolar","TrainingItems",0,76,76,89,NA,NA,NA,NA,NA,NA,NA,NA,NA,NA,124,FALSE,20,59.9168310665,NA,"American English","VSH_Exp2","2016_Mar_24_1419",NA
"Recordings/pitu.wav","no","p","t","i","yes","u","pitu","Training","bilabial","TrainingItems",0,77,77,30,NA,NA,NA,NA,NA,NA,NA,NA,NA,NA,124,FALSE,20,59.9168310665,NA,"American English","VSH_Exp2","2016_Mar_24_1419",NA
"Recordings/bibi.wav","yes","b","b","i","yes","i","bibi","Training","bilabial","TrainingItems",0,78,78,33,NA,NA,NA,NA,NA,NA,NA,NA,NA,NA,124,FALSE,20,59.9168310665,NA,"American English","VSH_Exp2","2016_Mar_24_1419",NA
"Recordings/sisi.wav","no","s","s","i","no","i","sisi","Training","alveolar","TrainingItems",0,79,79,29,NA,NA,NA,NA,NA,NA,NA,NA,NA,NA,124,FALSE,20,59.9168310665,NA,"American English","VSH_Exp2","2016_Mar_24_1419",NA
"Recordings/bida.wav","yes","b","d","i","yes","a","bida","Training","bilabial","TrainingItems",0,80,80,16,NA,NA,NA,NA,NA,NA,NA,NA,NA,NA,124,FALSE,20,59.9168310665,NA,"American English","VSH_Exp2","2016_Mar_24_1419",NA
"Recordings/pipi.wav","no","p","p","i","yes","i","pipi","Training","bilabial","TrainingItems",0,81,81,75,NA,NA,NA,NA,NA,NA,NA,NA,NA,NA,124,FALSE,20,59.9168310665,NA,"American English","VSH_Exp2","2016_Mar_24_1419",NA
"Recordings/tupu.wav","no","t","p","u","yes","u","tupu","Training","alveolar","TrainingItems",0,82,82,47,NA,NA,NA,NA,NA,NA,NA,NA,NA,NA,124,FALSE,20,59.9168310665,NA,"American English","VSH_Exp2","2016_Mar_24_1419",NA
"Recordings/bubi.wav","yes","b","b","u","yes","i","bubi","Training","bilabial","TrainingItems",0,83,83,10,NA,NA,NA,NA,NA,NA,NA,NA,NA,NA,124,FALSE,20,59.9168310665,NA,"American English","VSH_Exp2","2016_Mar_24_1419",NA
"Recordings/papi.wav","no","p","p","a","yes","i","papi","Training","bilabial","TrainingItems",0,84,84,25,NA,NA,NA,NA,NA,NA,NA,NA,NA,NA,124,FALSE,20,59.9168310665,NA,"American English","VSH_Exp2","2016_Mar_24_1419",NA
"Recordings/sufu.wav","no","s","f","u","no","u","sufu","Training","alveolar","TrainingItems",0,85,85,58,NA,NA,NA,NA,NA,NA,NA,NA,NA,NA,124,FALSE,20,59.9168310665,NA,"American English","VSH_Exp2","2016_Mar_24_1419",NA
"Recordings/vuvu.wav","yes","v","v","u","no","u","vuvu","Training","bilabial","TrainingItems",0,86,86,14,NA,NA,NA,NA,NA,NA,NA,NA,NA,NA,124,FALSE,20,59.9168310665,NA,"American English","VSH_Exp2","2016_Mar_24_1419",NA
"Recordings/piti.wav","no","p","t","i","yes","i","piti","Training","bilabial","TrainingItems",0,87,87,13,NA,NA,NA,NA,NA,NA,NA,NA,NA,NA,124,FALSE,20,59.9168310665,NA,"American English","VSH_Exp2","2016_Mar_24_1419",NA
"Recordings/daba.wav","yes","d","b","a","yes","a","daba","Training","alveolar","TrainingItems",0,88,88,15,NA,NA,NA,NA,NA,NA,NA,NA,NA,NA,124,FALSE,20,59.9168310665,NA,"American English","VSH_Exp2","2016_Mar_24_1419",NA
"Recordings/safu.wav","no","s","f","a","no","u","safu","Training","alveolar","TrainingItems",0,89,89,93,NA,NA,NA,NA,NA,NA,NA,NA,NA,NA,124,FALSE,20,59.9168310665,NA,"American English","VSH_Exp2","2016_Mar_24_1419",NA
"Recordings/vuvi.wav","yes","v","v","u","no","i","vuvi","Training","bilabial","TrainingItems",0,90,90,63,NA,NA,NA,NA,NA,NA,NA,NA,NA,NA,124,FALSE,20,59.9168310665,NA,"American English","VSH_Exp2","2016_Mar_24_1419",NA
"Recordings/tuti.wav","no","t","t","u","yes","i","tuti","Training","alveolar","TrainingItems",0,91,91,96,NA,NA,NA,NA,NA,NA,NA,NA,NA,NA,124,FALSE,20,59.9168310665,NA,"American English","VSH_Exp2","2016_Mar_24_1419",NA
"Recordings/fusi.wav","no","f","s","u","no","i","fusi","Training","bilabial","TrainingItems",0,92,92,53,NA,NA,NA,NA,NA,NA,NA,NA,NA,NA,124,FALSE,20,59.9168310665,NA,"American English","VSH_Exp2","2016_Mar_24_1419",NA
"Recordings/tipi.wav","no","t","p","i","yes","i","tipi","Training","alveolar","TrainingItems",0,93,93,72,NA,NA,NA,NA,NA,NA,NA,NA,NA,NA,124,FALSE,20,59.9168310665,NA,"American English","VSH_Exp2","2016_Mar_24_1419",NA
"Recordings/putu.wav","no","p","t","u","yes","u","putu","Training","bilabial","TrainingItems",0,94,94,40,NA,NA,NA,NA,NA,NA,NA,NA,NA,NA,124,FALSE,20,59.9168310665,NA,"American English","VSH_Exp2","2016_Mar_24_1419",NA
"Recordings/sifu.wav","no","s","f","i","no","u","sifu","Training","alveolar","TrainingItems",0,95,95,5,NA,NA,NA,NA,NA,NA,NA,NA,NA,NA,124,FALSE,20,59.9168310665,NA,"American English","VSH_Exp2","2016_Mar_24_1419",NA
"Recordings/papa.wav","no","p","p","a","yes","a","papa","Training","bilabial","TrainingItems",0,96,96,54,NA,NA,NA,NA,NA,NA,NA,NA,NA,NA,124,FALSE,20,59.9168310665,NA,"American English","VSH_Exp2","2016_Mar_24_1419",NA
"Recordings/zuzu.wav","yes","z","z","u","no","u","zuzu","Training","alveolar","TrainingItems",0,97,97,55,NA,NA,NA,NA,NA,NA,NA,NA,NA,NA,124,FALSE,20,59.9168310665,NA,"American English","VSH_Exp2","2016_Mar_24_1419",NA
"Recordings/bidu.wav","yes","b","d","i","yes","u","bidu","Training","bilabial","TrainingItems",0,98,98,19,NA,NA,NA,NA,NA,NA,NA,NA,NA,NA,124,FALSE,20,59.9168310665,NA,"American English","VSH_Exp2","2016_Mar_24_1419",NA
"Recordings/dadu.wav","yes","d","d","a","yes","u","dadu","Training","alveolar","TrainingItems",0,99,99,82,NA,NA,NA,NA,NA,NA,NA,NA,NA,NA,124,FALSE,20,59.9168310665,NA,"American English","VSH_Exp2","2016_Mar_24_1419",NA
"Recordings/tapi.wav","no","t","p","a","yes","i","tapi","Training","alveolar","TrainingItems",1,0,100,90,NA,NA,NA,NA,NA,NA,NA,NA,NA,NA,124,FALSE,20,59.9168310665,NA,"American English","VSH_Exp2","2016_Mar_24_1419",NA
"Recordings/vuvi.wav","yes","v","v","u","no","i","vuvi","Training","bilabial","TrainingItems",1,1,101,63,NA,NA,NA,NA,NA,NA,NA,NA,NA,NA,124,FALSE,20,59.9168310665,NA,"American English","VSH_Exp2","2016_Mar_24_1419",NA
"Recordings/fufu.wav","no","f","f","u","no","u","fufu","Training","bilabial","TrainingItems",1,2,102,97,NA,NA,NA,NA,NA,NA,NA,NA,NA,NA,124,FALSE,20,59.9168310665,NA,"American English","VSH_Exp2","2016_Mar_24_1419",NA
"Recordings/tipa.wav","no","t","p","i","yes","a","tipa","Training","alveolar","TrainingItems",1,3,103,74,NA,NA,NA,NA,NA,NA,NA,NA,NA,NA,124,FALSE,20,59.9168310665,NA,"American English","VSH_Exp2","2016_Mar_24_1419",NA
"Recordings/badi.wav","yes","b","d","a","yes","i","badi","Training","bilabial","TrainingItems",1,4,104,7,NA,NA,NA,NA,NA,NA,NA,NA,NA,NA,124,FALSE,20,59.9168310665,NA,"American English","VSH_Exp2","2016_Mar_24_1419",NA
"Recordings/papa.wav","no","p","p","a","yes","a","papa","Training","bilabial","TrainingItems",1,5,105,54,NA,NA,NA,NA,NA,NA,NA,NA,NA,NA,124,FALSE,20,59.9168310665,NA,"American English","VSH_Exp2","2016_Mar_24_1419",NA
"Recordings/fafa.wav","no","f","f","a","no","a","fafa","Training","bilabial","TrainingItems",1,6,106,37,NA,NA,NA,NA,NA,NA,NA,NA,NA,NA,124,FALSE,20,59.9168310665,NA,"American English","VSH_Exp2","2016_Mar_24_1419",NA
"Recordings/fifu.wav","no","f","f","i","no","u","fifu","Training","bilabial","TrainingItems",1,7,107,24,NA,NA,NA,NA,NA,NA,NA,NA,NA,NA,124,FALSE,20,59.9168310665,NA,"American English","VSH_Exp2","2016_Mar_24_1419",NA
"Recordings/biba.wav","yes","b","b","i","yes","a","biba","Training","bilabial","TrainingItems",1,8,108,59,NA,NA,NA,NA,NA,NA,NA,NA,NA,NA,124,FALSE,20,59.9168310665,NA,"American English","VSH_Exp2","2016_Mar_24_1419",NA
"Recordings/tutu.wav","no","t","t","u","yes","u","tutu","Training","alveolar","TrainingItems",1,9,109,18,NA,NA,NA,NA,NA,NA,NA,NA,NA,NA,124,FALSE,20,59.9168310665,NA,"American English","VSH_Exp2","2016_Mar_24_1419",NA
"Recordings/dibu.wav","yes","d","b","i","yes","u","dibu","Training","alveolar","TrainingItems",1,10,110,69,NA,NA,NA,NA,NA,NA,NA,NA,NA,NA,124,FALSE,20,59.9168310665,NA,"American English","VSH_Exp2","2016_Mar_24_1419",NA
"Recordings/didi.wav","yes","d","d","i","yes","i","didi","Training","alveolar","TrainingItems",1,11,111,8,NA,NA,NA,NA,NA,NA,NA,NA,NA,NA,124,FALSE,20,59.9168310665,NA,"American English","VSH_Exp2","2016_Mar_24_1419",NA
"Recordings/bubu.wav","yes","b","b","u","yes","u","bubu","Training","bilabial","TrainingItems",1,12,112,21,NA,NA,NA,NA,NA,NA,NA,NA,NA,NA,124,FALSE,20,59.9168310665,NA,"American English","VSH_Exp2","2016_Mar_24_1419",NA
"Recordings/baba.wav","yes","b","b","a","yes","a","baba","Training","bilabial","TrainingItems",1,13,113,3,NA,NA,NA,NA,NA,NA,NA,NA,NA,NA,124,FALSE,20,59.9168310665,NA,"American English","VSH_Exp2","2016_Mar_24_1419",NA
"Recordings/pipi.wav","no","p","p","i","yes","i","pipi","Training","bilabial","TrainingItems",1,14,114,75,NA,NA,NA,NA,NA,NA,NA,NA,NA,NA,124,FALSE,20,59.9168310665,NA,"American English","VSH_Exp2","2016_Mar_24_1419",NA
"Recordings/fusi.wav","no","f","s","u","no","i","fusi","Training","bilabial","TrainingItems",1,15,115,53,NA,NA,NA,NA,NA,NA,NA,NA,NA,NA,124,FALSE,20,59.9168310665,NA,"American English","VSH_Exp2","2016_Mar_24_1419",NA
"Recordings/dubi.wav","yes","d","b","u","yes","i","dubi","Training","alveolar","TrainingItems",1,16,116,78,NA,NA,NA,NA,NA,NA,NA,NA,NA,NA,124,FALSE,20,59.9168310665,NA,"American English","VSH_Exp2","2016_Mar_24_1419",NA
"Recordings/safi.wav","no","s","f","a","no","i","safi","Training","alveolar","TrainingItems",1,17,117,57,NA,NA,NA,NA,NA,NA,NA,NA,NA,NA,124,FALSE,20,59.9168310665,NA,"American English","VSH_Exp2","2016_Mar_24_1419",NA
"Recordings/safa.wav","no","s","f","a","no","a","safa","Training","alveolar","TrainingItems",1,18,118,98,NA,NA,NA,NA,NA,NA,NA,NA,NA,NA,124,FALSE,20,59.9168310665,NA,"American English","VSH_Exp2","2016_Mar_24_1419",NA
"Recordings/dadu.wav","yes","d","d","a","yes","u","dadu","Training","alveolar","TrainingItems",1,19,119,82,NA,NA,NA,NA,NA,NA,NA,NA,NA,NA,124,FALSE,20,59.9168310665,NA,"American English","VSH_Exp2","2016_Mar_24_1419",NA
"Recordings/babi.wav","yes","b","b","a","yes","i","babi","Training","bilabial","TrainingItems",1,20,120,28,NA,NA,NA,NA,NA,NA,NA,NA,NA,NA,124,FALSE,20,59.9168310665,NA,"American English","VSH_Exp2","2016_Mar_24_1419",NA
"Recordings/tipi.wav","no","t","p","i","yes","i","tipi","Training","alveolar","TrainingItems",1,21,121,72,NA,NA,NA,NA,NA,NA,NA,NA,NA,NA,124,FALSE,20,59.9168310665,NA,"American English","VSH_Exp2","2016_Mar_24_1419",NA
"Recordings/vava.wav","yes","v","v","a","no","a","vava","Training","bilabial","TrainingItems",1,22,122,35,NA,NA,NA,NA,NA,NA,NA,NA,NA,NA,124,FALSE,20,59.9168310665,NA,"American English","VSH_Exp2","2016_Mar_24_1419",NA
"Recordings/susu.wav","no","s","s","u","no","u","susu","Training","alveolar","TrainingItems",1,23,123,79,NA,NA,NA,NA,NA,NA,NA,NA,NA,NA,124,FALSE,20,59.9168310665,NA,"American English","VSH_Exp2","2016_Mar_24_1419",NA
"Recordings/fasu.wav","no","f","s","a","no","u","fasu","Training","bilabial","TrainingItems",1,24,124,41,NA,NA,NA,NA,NA,NA,NA,NA,NA,NA,124,FALSE,20,59.9168310665,NA,"American English","VSH_Exp2","2016_Mar_24_1419",NA
"Recordings/sasi.wav","no","s","s","a","no","i","sasi","Training","alveolar","TrainingItems",1,25,125,34,NA,NA,NA,NA,NA,NA,NA,NA,NA,NA,124,FALSE,20,59.9168310665,NA,"American English","VSH_Exp2","2016_Mar_24_1419",NA
"Recordings/vavi.wav","yes","v","v","a","no","i","vavi","Training","bilabial","TrainingItems",1,26,126,44,NA,NA,NA,NA,NA,NA,NA,NA,NA,NA,124,FALSE,20,59.9168310665,NA,"American English","VSH_Exp2","2016_Mar_24_1419",NA
"Recordings/sisa.wav","no","s","s","i","no","a","sisa","Training","alveolar","TrainingItems",1,27,127,27,NA,NA,NA,NA,NA,NA,NA,NA,NA,NA,124,FALSE,20,59.9168310665,NA,"American English","VSH_Exp2","2016_Mar_24_1419",NA
"Recordings/viva.wav","yes","v","v","i","no","a","viva","Training","bilabial","TrainingItems",1,28,128,26,NA,NA,NA,NA,NA,NA,NA,NA,NA,NA,124,FALSE,20,59.9168310665,NA,"American English","VSH_Exp2","2016_Mar_24_1419",NA
"Recordings/pata.wav","no","p","t","a","yes","a","pata","Training","bilabial","TrainingItems",1,29,129,49,NA,NA,NA,NA,NA,NA,NA,NA,NA,NA,124,FALSE,20,59.9168310665,NA,"American English","VSH_Exp2","2016_Mar_24_1419",NA
"Recordings/dida.wav","yes","d","d","i","yes","a","dida","Training","alveolar","TrainingItems",1,30,130,71,NA,NA,NA,NA,NA,NA,NA,NA,NA,NA,124,FALSE,20,59.9168310665,NA,"American English","VSH_Exp2","2016_Mar_24_1419",NA
"Recordings/fisa.wav","no","f","s","i","no","a","fisa","Training","bilabial","TrainingItems",1,31,131,17,NA,NA,NA,NA,NA,NA,NA,NA,NA,NA,124,FALSE,20,59.9168310665,NA,"American English","VSH_Exp2","2016_Mar_24_1419",NA
"Recordings/bada.wav","yes","b","d","a","yes","a","bada","Training","bilabial","TrainingItems",1,32,132,1,NA,NA,NA,NA,NA,NA,NA,NA,NA,NA,124,FALSE,20,59.9168310665,NA,"American English","VSH_Exp2","2016_Mar_24_1419",NA
"Recordings/sasa.wav","no","s","s","a","no","a","sasa","Training","alveolar","TrainingItems",1,33,133,83,NA,NA,NA,NA,NA,NA,NA,NA,NA,NA,124,FALSE,20,59.9168310665,NA,"American English","VSH_Exp2","2016_Mar_24_1419",NA
"Recordings/dabi.wav","yes","d","b","a","yes","i","dabi","Training","alveolar","TrainingItems",1,34,134,52,NA,NA,NA,NA,NA,NA,NA,NA,NA,NA,124,FALSE,20,59.9168310665,NA,"American English","VSH_Exp2","2016_Mar_24_1419",NA
"Recordings/dabu.wav","yes","d","b","a","yes","u","dabu","Training","alveolar","TrainingItems",1,35,135,91,NA,NA,NA,NA,NA,NA,NA,NA,NA,NA,124,FALSE,20,59.9168310665,NA,"American English","VSH_Exp2","2016_Mar_24_1419",NA
"Recordings/zizu.wav","yes","z","z","i","no","u","zizu","Training","alveolar","TrainingItems",1,36,136,61,NA,NA,NA,NA,NA,NA,NA,NA,NA,NA,124,FALSE,20,59.9168310665,NA,"American English","VSH_Exp2","2016_Mar_24_1419",NA
"Recordings/tatu.wav","no","t","t","a","yes","u","tatu","Training","alveolar","TrainingItems",1,37,137,81,NA,NA,NA,NA,NA,NA,NA,NA,NA,NA,124,FALSE,20,59.9168310665,NA,"American English","VSH_Exp2","2016_Mar_24_1419",NA
"Recordings/vuvu.wav","yes","v","v","u","no","u","vuvu","Training","bilabial","TrainingItems",1,38,138,14,NA,NA,NA,NA,NA,NA,NA,NA,NA,NA,124,FALSE,20,59.9168310665,NA,"American English","VSH_Exp2","2016_Mar_24_1419",NA
"Recordings/zuza.wav","yes","z","z","u","no","a","zuza","Training","alveolar","TrainingItems",1,39,139,77,NA,NA,NA,NA,NA,NA,NA,NA,NA,NA,124,FALSE,20,59.9168310665,NA,"American English","VSH_Exp2","2016_Mar_24_1419",NA
"Recordings/dudu.wav","yes","d","d","u","yes","u","dudu","Training","alveolar","TrainingItems",1,40,140,2,NA,NA,NA,NA,NA,NA,NA,NA,NA,NA,124,FALSE,20,59.9168310665,NA,"American English","VSH_Exp2","2016_Mar_24_1419",NA
"Recordings/fafi.wav","no","f","f","a","no","i","fafi","Training","bilabial","TrainingItems",1,41,141,94,NA,NA,NA,NA,NA,NA,NA,NA,NA,NA,124,FALSE,20,59.9168310665,NA,"American English","VSH_Exp2","2016_Mar_24_1419",NA
"Recordings/dada.wav","yes","d","d","a","yes","a","dada","Training","alveolar","TrainingItems",1,42,142,50,NA,NA,NA,NA,NA,NA,NA,NA,NA,NA,124,FALSE,20,59.9168310665,NA,"American English","VSH_Exp2","2016_Mar_24_1419",NA
"Recordings/fifi.wav","no","f","f","i","no","i","fifi","Training","bilabial","TrainingItems",1,43,143,46,NA,NA,NA,NA,NA,NA,NA,NA,NA,NA,124,FALSE,20,59.9168310665,NA,"American English","VSH_Exp2","2016_Mar_24_1419",NA
"Recordings/daba.wav","yes","d","b","a","yes","a","daba","Training","alveolar","TrainingItems",1,44,144,15,NA,NA,NA,NA,NA,NA,NA,NA,NA,NA,124,FALSE,20,59.9168310665,NA,"American English","VSH_Exp2","2016_Mar_24_1419",NA
"Recordings/titu.wav","no","t","t","i","yes","u","titu","Training","alveolar","TrainingItems",1,45,145,67,NA,NA,NA,NA,NA,NA,NA,NA,NA,NA,124,FALSE,20,59.9168310665,NA,"American English","VSH_Exp2","2016_Mar_24_1419",NA
"Recordings/fisu.wav","no","f","s","i","no","u","fisu","Training","bilabial","TrainingItems",1,46,146,87,NA,NA,NA,NA,NA,NA,NA,NA,NA,NA,124,FALSE,20,59.9168310665,NA,"American English","VSH_Exp2","2016_Mar_24_1419",NA
"Recordings/fufa.wav","no","f","f","u","no","a","fufa","Training","bilabial","TrainingItems",1,47,147,92,NA,NA,NA,NA,NA,NA,NA,NA,NA,NA,124,FALSE,20,59.9168310665,NA,"American English","VSH_Exp2","2016_Mar_24_1419",NA
"Recordings/fusu.wav","no","f","s","u","no","u","fusu","Training","bilabial","TrainingItems",1,48,148,45,NA,NA,NA,NA,NA,NA,NA,NA,NA,NA,124,FALSE,20,59.9168310665,NA,"American English","VSH_Exp2","2016_Mar_24_1419",NA
"Recordings/bidu.wav","yes","b","d","i","yes","u","bidu","Training","bilabial","TrainingItems",1,49,149,19,NA,NA,NA,NA,NA,NA,NA,NA,NA,NA,124,FALSE,20,59.9168310665,NA,"American English","VSH_Exp2","2016_Mar_24_1419",NA
"Recordings/patu.wav","no","p","t","a","yes","u","patu","Training","bilabial","TrainingItems",1,50,150,38,NA,NA,NA,NA,NA,NA,NA,NA,NA,NA,124,FALSE,20,59.9168310665,NA,"American English","VSH_Exp2","2016_Mar_24_1419",NA
"Recordings/tuti.wav","no","t","t","u","yes","i","tuti","Training","alveolar","TrainingItems",1,51,151,96,NA,NA,NA,NA,NA,NA,NA,NA,NA,NA,124,FALSE,20,59.9168310665,NA,"American English","VSH_Exp2","2016_Mar_24_1419",NA
"Recordings/titi.wav","no","t","t","i","yes","i","titi","Training","alveolar","TrainingItems",1,52,152,43,NA,NA,NA,NA,NA,NA,NA,NA,NA,NA,124,FALSE,20,59.9168310665,NA,"American English","VSH_Exp2","2016_Mar_24_1419",NA
"Recordings/pupu.wav","no","p","p","u","yes","u","pupu","Training","bilabial","TrainingItems",1,53,153,12,NA,NA,NA,NA,NA,NA,NA,NA,NA,NA,124,FALSE,20,59.9168310665,NA,"American English","VSH_Exp2","2016_Mar_24_1419",NA
"Recordings/putu.wav","no","p","t","u","yes","u","putu","Training","bilabial","TrainingItems",1,54,154,40,NA,NA,NA,NA,NA,NA,NA,NA,NA,NA,124,FALSE,20,59.9168310665,NA,"American English","VSH_Exp2","2016_Mar_24_1419",NA
"Recordings/duba.wav","yes","d","b","u","yes","a","duba","Training","alveolar","TrainingItems",1,55,155,62,NA,NA,NA,NA,NA,NA,NA,NA,NA,NA,124,FALSE,20,59.9168310665,NA,"American English","VSH_Exp2","2016_Mar_24_1419",NA
"Recordings/bubi.wav","yes","b","b","u","yes","i","bubi","Training","bilabial","TrainingItems",1,56,156,10,NA,NA,NA,NA,NA,NA,NA,NA,NA,NA,124,FALSE,20,59.9168310665,NA,"American English","VSH_Exp2","2016_Mar_24_1419",NA
"Recordings/fifa.wav","no","f","f","i","no","a","fifa","Training","bilabial","TrainingItems",1,57,157,20,NA,NA,NA,NA,NA,NA,NA,NA,NA,NA,124,FALSE,20,59.9168310665,NA,"American English","VSH_Exp2","2016_Mar_24_1419",NA
"Recordings/vavu.wav","yes","v","v","a","no","u","vavu","Training","bilabial","TrainingItems",1,58,158,68,NA,NA,NA,NA,NA,NA,NA,NA,NA,NA,124,FALSE,20,59.9168310665,NA,"American English","VSH_Exp2","2016_Mar_24_1419",NA
"Recordings/fufi.wav","no","f","f","u","no","i","fufi","Training","bilabial","TrainingItems",1,59,159,31,NA,NA,NA,NA,NA,NA,NA,NA,NA,NA,124,FALSE,20,59.9168310665,NA,"American English","VSH_Exp2","2016_Mar_24_1419",NA
"Recordings/zazu.wav","yes","z","z","a","no","u","zazu","Training","alveolar","TrainingItems",1,60,160,86,NA,NA,NA,NA,NA,NA,NA,NA,NA,NA,124,FALSE,20,59.9168310665,NA,"American English","VSH_Exp2","2016_Mar_24_1419",NA
"Recordings/fasa.wav","no","f","s","a","no","a","fasa","Training","bilabial","TrainingItems",1,61,161,64,NA,NA,NA,NA,NA,NA,NA,NA,NA,NA,124,FALSE,20,59.9168310665,NA,"American English","VSH_Exp2","2016_Mar_24_1419",NA
"Recordings/papi.wav","no","p","p","a","yes","i","papi","Training","bilabial","TrainingItems",1,62,162,25,NA,NA,NA,NA,NA,NA,NA,NA,NA,NA,124,FALSE,20,59.9168310665,NA,"American English","VSH_Exp2","2016_Mar_24_1419",NA
"Recordings/dudi.wav","yes","d","d","u","yes","i","dudi","Training","alveolar","TrainingItems",1,63,163,32,NA,NA,NA,NA,NA,NA,NA,NA,NA,NA,124,FALSE,20,59.9168310665,NA,"American English","VSH_Exp2","2016_Mar_24_1419",NA
"Recordings/tupu.wav","no","t","p","u","yes","u","tupu","Training","alveolar","TrainingItems",1,64,164,47,NA,NA,NA,NA,NA,NA,NA,NA,NA,NA,124,FALSE,20,59.9168310665,NA,"American English","VSH_Exp2","2016_Mar_24_1419",NA
"Recordings/sifu.wav","no","s","f","i","no","u","sifu","Training","alveolar","TrainingItems",1,65,165,5,NA,NA,NA,NA,NA,NA,NA,NA,NA,NA,124,FALSE,20,59.9168310665,NA,"American English","VSH_Exp2","2016_Mar_24_1419",NA
"Recordings/tuta.wav","no","t","t","u","yes","a","tuta","Training","alveolar","TrainingItems",1,66,166,99,NA,NA,NA,NA,NA,NA,NA,NA,NA,NA,124,FALSE,20,59.9168310665,NA,"American English","VSH_Exp2","2016_Mar_24_1419",NA
"Recordings/dibi.wav","yes","d","b","i","yes","i","dibi","Training","alveolar","TrainingItems",1,67,167,22,NA,NA,NA,NA,NA,NA,NA,NA,NA,NA,124,FALSE,20,59.9168310665,NA,"American English","VSH_Exp2","2016_Mar_24_1419",NA
"Recordings/tati.wav","no","t","t","a","yes","i","tati","Training","alveolar","TrainingItems",1,68,168,65,NA,NA,NA,NA,NA,NA,NA,NA,NA,NA,124,FALSE,20,59.9168310665,NA,"American English","VSH_Exp2","2016_Mar_24_1419",NA
"Recordings/papu.wav","no","p","p","a","yes","u","papu","Training","bilabial","TrainingItems",1,69,169,51,NA,NA,NA,NA,NA,NA,NA,NA,NA,NA,124,FALSE,20,59.9168310665,NA,"American English","VSH_Exp2","2016_Mar_24_1419",NA
"Recordings/pupa.wav","no","p","p","u","yes","a","pupa","Training","bilabial","TrainingItems",1,70,170,84,NA,NA,NA,NA,NA,NA,NA,NA,NA,NA,124,FALSE,20,59.9168310665,NA,"American English","VSH_Exp2","2016_Mar_24_1419",NA
"Recordings/pipu.wav","no","p","p","i","yes","u","pipu","Training","bilabial","TrainingItems",1,71,171,0,NA,NA,NA,NA,NA,NA,NA,NA,NA,NA,124,FALSE,20,59.9168310665,NA,"American English","VSH_Exp2","2016_Mar_24_1419",NA
"Recordings/dadi.wav","yes","d","d","a","yes","i","dadi","Training","alveolar","TrainingItems",1,72,172,56,NA,NA,NA,NA,NA,NA,NA,NA,NA,NA,124,FALSE,20,59.9168310665,NA,"American English","VSH_Exp2","2016_Mar_24_1419",NA
"Recordings/tapu.wav","no","t","p","a","yes","u","tapu","Training","alveolar","TrainingItems",1,73,173,76,NA,NA,NA,NA,NA,NA,NA,NA,NA,NA,124,FALSE,20,59.9168310665,NA,"American English","VSH_Exp2","2016_Mar_24_1419",NA
"Recordings/tata.wav","no","t","t","a","yes","a","tata","Training","alveolar","TrainingItems",1,74,174,4,NA,NA,NA,NA,NA,NA,NA,NA,NA,NA,124,FALSE,20,59.9168310665,NA,"American English","VSH_Exp2","2016_Mar_24_1419",NA
"Recordings/buba.wav","yes","b","b","u","yes","a","buba","Training","bilabial","TrainingItems",1,75,175,88,NA,NA,NA,NA,NA,NA,NA,NA,NA,NA,124,FALSE,20,59.9168310665,NA,"American English","VSH_Exp2","2016_Mar_24_1419",NA
"Recordings/babu.wav","yes","b","b","a","yes","u","babu","Training","bilabial","TrainingItems",1,76,176,95,NA,NA,NA,NA,NA,NA,NA,NA,NA,NA,124,FALSE,20,59.9168310665,NA,"American English","VSH_Exp2","2016_Mar_24_1419",NA
"Recordings/fafu.wav","no","f","f","a","no","u","fafu","Training","bilabial","TrainingItems",1,77,177,42,NA,NA,NA,NA,NA,NA,NA,NA,NA,NA,124,FALSE,20,59.9168310665,NA,"American English","VSH_Exp2","2016_Mar_24_1419",NA
"Recordings/bida.wav","yes","b","d","i","yes","a","bida","Training","bilabial","TrainingItems",1,78,178,16,NA,NA,NA,NA,NA,NA,NA,NA,NA,NA,124,FALSE,20,59.9168310665,NA,"American English","VSH_Exp2","2016_Mar_24_1419",NA
"Recordings/tupa.wav","no","t","p","u","yes","a","tupa","Training","alveolar","TrainingItems",1,79,179,73,NA,NA,NA,NA,NA,NA,NA,NA,NA,NA,124,FALSE,20,59.9168310665,NA,"American English","VSH_Exp2","2016_Mar_24_1419",NA
"Recordings/sisi.wav","no","s","s","i","no","i","sisi","Training","alveolar","TrainingItems",1,80,180,29,NA,NA,NA,NA,NA,NA,NA,NA,NA,NA,124,FALSE,20,59.9168310665,NA,"American English","VSH_Exp2","2016_Mar_24_1419",NA
"Recordings/didu.wav","yes","d","d","i","yes","u","didu","Training","alveolar","TrainingItems",1,81,181,48,NA,NA,NA,NA,NA,NA,NA,NA,NA,NA,124,FALSE,20,59.9168310665,NA,"American English","VSH_Exp2","2016_Mar_24_1419",NA
"Recordings/sufa.wav","no","s","f","u","no","a","sufa","Training","alveolar","TrainingItems",1,82,182,70,NA,NA,NA,NA,NA,NA,NA,NA,NA,NA,124,FALSE,20,59.9168310665,NA,"American English","VSH_Exp2","2016_Mar_24_1419",NA
"Recordings/sisu.wav","no","s","s","i","no","u","sisu","Training","alveolar","TrainingItems",1,83,183,89,NA,NA,NA,NA,NA,NA,NA,NA,NA,NA,124,FALSE,20,59.9168310665,NA,"American English","VSH_Exp2","2016_Mar_24_1419",NA
"Recordings/safu.wav","no","s","f","a","no","u","safu","Training","alveolar","TrainingItems",1,84,184,93,NA,NA,NA,NA,NA,NA,NA,NA,NA,NA,124,FALSE,20,59.9168310665,NA,"American English","VSH_Exp2","2016_Mar_24_1419",NA
"Recordings/pitu.wav","no","p","t","i","yes","u","pitu","Training","bilabial","TrainingItems",1,85,185,30,NA,NA,NA,NA,NA,NA,NA,NA,NA,NA,124,FALSE,20,59.9168310665,NA,"American English","VSH_Exp2","2016_Mar_24_1419",NA
"Recordings/pipa.wav","no","p","p","i","yes","a","pipa","Training","bilabial","TrainingItems",1,86,186,66,NA,NA,NA,NA,NA,NA,NA,NA,NA,NA,124,FALSE,20,59.9168310665,NA,"American English","VSH_Exp2","2016_Mar_24_1419",NA
"Recordings/sufu.wav","no","s","f","u","no","u","sufu","Training","alveolar","TrainingItems",1,87,187,58,NA,NA,NA,NA,NA,NA,NA,NA,NA,NA,124,FALSE,20,59.9168310665,NA,"American English","VSH_Exp2","2016_Mar_24_1419",NA
"Recordings/buda.wav","yes","b","d","u","yes","a","buda","Training","bilabial","TrainingItems",1,88,188,6,NA,NA,NA,NA,NA,NA,NA,NA,NA,NA,124,FALSE,20,59.9168310665,NA,"American English","VSH_Exp2","2016_Mar_24_1419",NA
"Recordings/vivu.wav","yes","v","v","i","no","u","vivu","Training","bilabial","TrainingItems",1,89,189,23,NA,NA,NA,NA,NA,NA,NA,NA,NA,NA,124,FALSE,20,59.9168310665,NA,"American English","VSH_Exp2","2016_Mar_24_1419",NA
"Recordings/bibi.wav","yes","b","b","i","yes","i","bibi","Training","bilabial","TrainingItems",1,90,190,33,NA,NA,NA,NA,NA,NA,NA,NA,NA,NA,124,FALSE,20,59.9168310665,NA,"American English","VSH_Exp2","2016_Mar_24_1419",NA
"Recordings/susi.wav","no","s","s","u","no","i","susi","Training","alveolar","TrainingItems",1,91,191,36,NA,NA,NA,NA,NA,NA,NA,NA,NA,NA,124,FALSE,20,59.9168310665,NA,"American English","VSH_Exp2","2016_Mar_24_1419",NA
"Recordings/badu.wav","yes","b","d","a","yes","u","badu","Training","bilabial","TrainingItems",1,92,192,9,NA,NA,NA,NA,NA,NA,NA,NA,NA,NA,124,FALSE,20,59.9168310665,NA,"American English","VSH_Exp2","2016_Mar_24_1419",NA
"Recordings/tapa.wav","no","t","p","a","yes","a","tapa","Training","alveolar","TrainingItems",1,93,193,85,NA,NA,NA,NA,NA,NA,NA,NA,NA,NA,124,FALSE,20,59.9168310665,NA,"American English","VSH_Exp2","2016_Mar_24_1419",NA
"Recordings/piti.wav","no","p","t","i","yes","i","piti","Training","bilabial","TrainingItems",1,94,194,13,NA,NA,NA,NA,NA,NA,NA,NA,NA,NA,124,FALSE,20,59.9168310665,NA,"American English","VSH_Exp2","2016_Mar_24_1419",NA
"Recordings/ziza.wav","yes","z","z","i","no","a","ziza","Training","alveolar","TrainingItems",1,95,195,11,NA,NA,NA,NA,NA,NA,NA,NA,NA,NA,124,FALSE,20,59.9168310665,NA,"American English","VSH_Exp2","2016_Mar_24_1419",NA
"Recordings/budi.wav","yes","b","d","u","yes","i","budi","Training","bilabial","TrainingItems",1,96,196,80,NA,NA,NA,NA,NA,NA,NA,NA,NA,NA,124,FALSE,20,59.9168310665,NA,"American English","VSH_Exp2","2016_Mar_24_1419",NA
"Recordings/fisi.wav","no","f","s","i","no","i","fisi","Training","bilabial","TrainingItems",1,97,197,60,NA,NA,NA,NA,NA,NA,NA,NA,NA,NA,124,FALSE,20,59.9168310665,NA,"American English","VSH_Exp2","2016_Mar_24_1419",NA
"Recordings/zuzu.wav","yes","z","z","u","no","u","zuzu","Training","alveolar","TrainingItems",1,98,198,55,NA,NA,NA,NA,NA,NA,NA,NA,NA,NA,124,FALSE,20,59.9168310665,NA,"American English","VSH_Exp2","2016_Mar_24_1419",NA
"Recordings/sufi.wav","no","s","f","u","no","i","sufi","Training","alveolar","TrainingItems",1,99,199,39,NA,NA,NA,NA,NA,NA,NA,NA,NA,NA,124,FALSE,20,59.9168310665,NA,"American English","VSH_Exp2","2016_Mar_24_1419",NA
NA,NA,NA,NA,NA,NA,NA,NA,NA,NA,NA,NA,NA,NA,NA,NA,NA,NA,NA,NA,NA,"space",32.203742981,NA,NA,124,FALSE,20,59.9168310665,NA,"American English","VSH_Exp2","2016_Mar_24_1419",NA
"Recordings/dipa.wav","yes","d","p","i","yes","a","dipa","Controls","alveolar","StopControls",NA,NA,NA,NA,0,0,0,36,NA,NA,NA,NA,"None","None",124,FALSE,20,59.9168310665,NA,"American English","VSH_Exp2","2016_Mar_24_1419",NA
"Recordings/zizi.wav","yes","z","z","i","no","i","zizi","Test","alveolar","NewWordTestStimuli",NA,NA,NA,NA,0,1,1,26,NA,NA,NA,NA,"Yes","1.887",124,FALSE,20,59.9168310665,NA,"American English","VSH_Exp2","2016_Mar_24_1419",NA
"Recordings/pipu.wav","no","p","p","i","yes","u","pipu","Test","bilabial","OldTestStimuli",NA,NA,NA,NA,0,2,2,3,NA,NA,NA,NA,"Yes","1.521",124,FALSE,20,59.9168310665,NA,"American English","VSH_Exp2","2016_Mar_24_1419",NA
"Recordings/futi.wav","no","f","t","u","no","i","futi","Controls","bilabial","VoicingControls",NA,NA,NA,NA,0,3,3,48,NA,NA,NA,NA,"Yes","3.673",124,FALSE,20,59.9168310665,NA,"American English","VSH_Exp2","2016_Mar_24_1419",NA
"Recordings/zuvi.wav","yes","z","v","u","no","i","zuvi","Test","alveolar","NewConsTestStimuli",NA,NA,NA,NA,0,4,4,16,NA,NA,NA,NA,"Yes","2.554",124,FALSE,20,59.9168310665,NA,"American English","VSH_Exp2","2016_Mar_24_1419",NA
"Recordings/vazi.wav","yes","v","z","a","no","i","vazi","Test","bilabial","NewConsTestStimuli",NA,NA,NA,NA,0,5,5,11,NA,NA,NA,NA,"No","1.838",124,FALSE,20,59.9168310665,NA,"American English","VSH_Exp2","2016_Mar_24_1419",NA
"Recordings/bisi.wav","yes","b","s","i","yes","i","bisi","Controls","bilabial","NoPatternControls",NA,NA,NA,NA,0,6,6,51,NA,NA,NA,NA,"No","1.504",124,FALSE,20,59.9168310665,NA,"American English","VSH_Exp2","2016_Mar_24_1419",NA
"Recordings/tita.wav","no","t","t","i","yes","a","tita","Test","alveolar","NewWordTestStimuli",NA,NA,NA,NA,0,7,7,24,NA,NA,NA,NA,"Yes","1.47",124,FALSE,20,59.9168310665,NA,"American English","VSH_Exp2","2016_Mar_24_1419",NA
"Recordings/fuza.wav","no","f","z","u","no","a","fuza","Controls","bilabial","StopControls",NA,NA,NA,NA,0,8,8,38,NA,NA,NA,NA,"Yes","1.837",124,FALSE,20,59.9168310665,NA,"American English","VSH_Exp2","2016_Mar_24_1419",NA
"Recordings/bifa.wav","yes","b","f","i","yes","a","bifa","Controls","bilabial","NoPatternControls",NA,NA,NA,NA,0,9,9,57,NA,NA,NA,NA,"No","3.506",124,FALSE,20,59.9168310665,NA,"American English","VSH_Exp2","2016_Mar_24_1419",NA
"Recordings/bupa.wav","yes","b","p","u","yes","a","bupa","Controls","bilabial","StopControls",NA,NA,NA,NA,0,10,10,31,NA,NA,NA,NA,"Yes","1.486",124,FALSE,20,59.9168310665,NA,"American English","VSH_Exp2","2016_Mar_24_1419",NA
"Recordings/duda.wav","yes","d","d","u","yes","a","duda","Test","alveolar","NewWordTestStimuli",NA,NA,NA,NA,0,11,11,22,NA,NA,NA,NA,"Yes","1.154",124,FALSE,20,59.9168310665,NA,"American English","VSH_Exp2","2016_Mar_24_1419",NA
"Recordings/duvu.wav","yes","d","v","u","yes","u","duvu","Controls","alveolar","VoicingControls",NA,NA,NA,NA,0,12,12,42,NA,NA,NA,NA,"No","2.621",124,FALSE,20,59.9168310665,NA,"American English","VSH_Exp2","2016_Mar_24_1419",NA
"Recordings/bufu.wav","yes","b","f","u","yes","u","bufu","Controls","bilabial","NoPatternControls",NA,NA,NA,NA,0,13,13,53,NA,NA,NA,NA,"No","1.173",124,FALSE,20,59.9168310665,NA,"American English","VSH_Exp2","2016_Mar_24_1419",NA
"Recordings/bisa.wav","yes","b","s","i","yes","a","bisa","Controls","bilabial","NoPatternControls",NA,NA,NA,NA,0,14,14,59,NA,NA,NA,NA,"Yes","1.437",124,FALSE,20,59.9168310665,NA,"American English","VSH_Exp2","2016_Mar_24_1419",NA
"Recordings/zivi.wav","yes","z","v","i","no","i","zivi","Test","alveolar","NewConsTestStimuli",NA,NA,NA,NA,0,15,15,17,NA,NA,NA,NA,"Yes","4.324",124,FALSE,20,59.9168310665,NA,"American English","VSH_Exp2","2016_Mar_24_1419",NA
"Recordings/zuvu.wav","yes","z","v","u","no","u","zuvu","Test","alveolar","NewConsTestStimuli",NA,NA,NA,NA,0,16,16,15,NA,NA,NA,NA,"Yes","1.053",124,FALSE,20,59.9168310665,NA,"American English","VSH_Exp2","2016_Mar_24_1419",NA
"Recordings/tisu.wav","no","t","s","i","yes","u","tisu","Controls","alveolar","VoicingControls",NA,NA,NA,NA,0,17,17,45,NA,NA,NA,NA,"Yes","1.387",124,FALSE,20,59.9168310665,NA,"American English","VSH_Exp2","2016_Mar_24_1419",NA
"Recordings/supi.wav","no","s","p","u","no","i","supi","Controls","alveolar","VoicingControls",NA,NA,NA,NA,0,18,18,40,NA,NA,NA,NA,"Yes","1.254",124,FALSE,20,59.9168310665,NA,"American English","VSH_Exp2","2016_Mar_24_1419",NA
"Recordings/diva.wav","yes","d","v","i","yes","a","diva","Controls","alveolar","VoicingControls",NA,NA,NA,NA,0,19,19,46,NA,NA,NA,NA,"No","1.686",124,FALSE,20,59.9168310665,NA,"American English","VSH_Exp2","2016_Mar_24_1419",NA
"Recordings/tubu.wav","no","t","b","u","yes","u","tubu","Controls","alveolar","StopControls",NA,NA,NA,NA,0,20,20,35,NA,NA,NA,NA,"No","1.538",124,FALSE,20,59.9168310665,NA,"American English","VSH_Exp2","2016_Mar_24_1419",NA
"Recordings/badu.wav","yes","b","d","a","yes","u","badu","Test","bilabial","OldTestStimuli",NA,NA,NA,NA,0,21,21,7,NA,NA,NA,NA,"Yes","2.171",124,FALSE,20,59.9168310665,NA,"American English","VSH_Exp2","2016_Mar_24_1419",NA
"Recordings/sudi.wav","no","s","d","u","no","i","sudi","Controls","alveolar","NoPatternControls",NA,NA,NA,NA,0,22,22,50,NA,NA,NA,NA,"Yes","2.855",124,FALSE,20,59.9168310665,NA,"American English","VSH_Exp2","2016_Mar_24_1419",NA
"Recordings/dubu.wav","yes","d","b","u","yes","u","dubu","Test","alveolar","NewWordTestStimuli",NA,NA,NA,NA,0,23,23,28,NA,NA,NA,NA,"Yes","1.438",124,FALSE,20,59.9168310665,NA,"American English","VSH_Exp2","2016_Mar_24_1419",NA
"Recordings/sasu.wav","no","s","s","a","no","u","sasu","Test","alveolar","NewWordTestStimuli",NA,NA,NA,NA,0,24,24,25,NA,NA,NA,NA,"Yes","1.637",124,FALSE,20,59.9168310665,NA,"American English","VSH_Exp2","2016_Mar_24_1419",NA
"Recordings/didi.wav","yes","d","d","i","yes","i","didi","Test","alveolar","OldTestStimuli",NA,NA,NA,NA,0,25,25,1,NA,NA,NA,NA,"Yes","1.237",124,FALSE,20,59.9168310665,NA,"American English","VSH_Exp2","2016_Mar_24_1419",NA
"Recordings/papi.wav","no","p","p","a","yes","i","papi","Test","bilabial","OldTestStimuli",NA,NA,NA,NA,0,26,26,8,NA,NA,NA,NA,"Yes","1.338",124,FALSE,20,59.9168310665,NA,"American English","VSH_Exp2","2016_Mar_24_1419",NA
"Recordings/buza.wav","yes","b","z","u","yes","a","buza","Controls","bilabial","VoicingControls",NA,NA,NA,NA,0,27,27,49,NA,NA,NA,NA,"Yes","1.537",124,FALSE,20,59.9168310665,NA,"American English","VSH_Exp2","2016_Mar_24_1419",NA
"Recordings/bava.wav","yes","b","v","a","yes","a","bava","Controls","bilabial","VoicingControls",NA,NA,NA,NA,0,28,28,43,NA,NA,NA,NA,"No","1.537",124,FALSE,20,59.9168310665,NA,"American English","VSH_Exp2","2016_Mar_24_1419",NA
"Recordings/bubi.wav","yes","b","b","u","yes","i","bubi","Test","bilabial","OldTestStimuli",NA,NA,NA,NA,0,29,29,9,NA,NA,NA,NA,"Yes","1.187",124,FALSE,20,59.9168310665,NA,"American English","VSH_Exp2","2016_Mar_24_1419",NA
"Recordings/pipa.wav","no","p","p","i","yes","a","pipa","Test","bilabial","OldTestStimuli",NA,NA,NA,NA,0,30,30,5,NA,NA,NA,NA,"Yes","1.504",124,FALSE,20,59.9168310665,NA,"American English","VSH_Exp2","2016_Mar_24_1419",NA
"Recordings/dada.wav","yes","d","d","a","yes","a","dada","Test","alveolar","OldTestStimuli",NA,NA,NA,NA,0,31,31,0,NA,NA,NA,NA,"No","4.725",124,FALSE,20,59.9168310665,NA,"American English","VSH_Exp2","2016_Mar_24_1419",NA
"Recordings/zuva.wav","yes","z","v","u","no","a","zuva","Test","alveolar","NewConsTestStimuli",NA,NA,NA,NA,0,32,32,18,NA,NA,NA,NA,"Yes","1.504",124,FALSE,20,59.9168310665,NA,"American English","VSH_Exp2","2016_Mar_24_1419",NA
"Recordings/vazu.wav","yes","v","z","a","no","u","vazu","Test","bilabial","NewConsTestStimuli",NA,NA,NA,NA,0,33,33,13,NA,NA,NA,NA,"Yes","1.52",124,FALSE,20,59.9168310665,NA,"American English","VSH_Exp2","2016_Mar_24_1419",NA
"Recordings/tavi.wav","no","t","v","a","yes","i","tavi","Controls","alveolar","NoPatternControls",NA,NA,NA,NA,0,34,34,55,NA,NA,NA,NA,"No","1.486",124,FALSE,20,59.9168310665,NA,"American English","VSH_Exp2","2016_Mar_24_1419",NA
"Recordings/zavi.wav","yes","z","v","a","no","i","zavi","Test","alveolar","NewConsTestStimuli",NA,NA,NA,NA,0,35,35,19,NA,NA,NA,NA,"No","1.805",124,FALSE,20,59.9168310665,NA,"American English","VSH_Exp2","2016_Mar_24_1419",NA
"Recordings/bapa.wav","yes","b","p","a","yes","a","bapa","Controls","bilabial","StopControls",NA,NA,NA,NA,0,36,36,33,NA,NA,NA,NA,"No","1.587",124,FALSE,20,59.9168310665,NA,"American English","VSH_Exp2","2016_Mar_24_1419",NA
"Recordings/dubi.wav","yes","d","b","u","yes","i","dubi","Test","alveolar","OldTestStimuli",NA,NA,NA,NA,0,37,37,4,NA,NA,NA,NA,"Yes","1.337",124,FALSE,20,59.9168310665,NA,"American English","VSH_Exp2","2016_Mar_24_1419",NA
"Recordings/tipu.wav","no","t","p","i","yes","u","tipu","Test","alveolar","NewWordTestStimuli",NA,NA,NA,NA,0,38,38,29,NA,NA,NA,NA,"Yes","1.904",124,FALSE,20,59.9168310665,NA,"American English","VSH_Exp2","2016_Mar_24_1419",NA
"Recordings/zava.wav","yes","z","v","a","no","a","zava","Test","alveolar","NewConsTestStimuli",NA,NA,NA,NA,0,39,39,10,NA,NA,NA,NA,"Yes","1.687",124,FALSE,20,59.9168310665,NA,"American English","VSH_Exp2","2016_Mar_24_1419",NA
"Recordings/vaza.wav","yes","v","z","a","no","a","vaza","Test","bilabial","NewConsTestStimuli",NA,NA,NA,NA,0,40,40,12,NA,NA,NA,NA,"No","1.221",124,FALSE,20,59.9168310665,NA,"American English","VSH_Exp2","2016_Mar_24_1419",NA
"Recordings/fudi.wav","no","f","d","u","no","i","fudi","Controls","bilabial","NoPatternControls",NA,NA,NA,NA,0,41,41,58,NA,NA,NA,NA,"Yes","2.354",124,FALSE,20,59.9168310665,NA,"American English","VSH_Exp2","2016_Mar_24_1419",NA
"Recordings/bupi.wav","yes","b","p","u","yes","i","bupi","Controls","bilabial","StopControls",NA,NA,NA,NA,0,42,42,37,NA,NA,NA,NA,"Yes","1.103",124,FALSE,20,59.9168310665,NA,"American English","VSH_Exp2","2016_Mar_24_1419",NA
"Recordings/bibu.wav","yes","b","b","i","yes","u","bibu","Test","bilabial","NewWordTestStimuli",NA,NA,NA,NA,0,43,43,23,NA,NA,NA,NA,"Yes","1.137",124,FALSE,20,59.9168310665,NA,"American English","VSH_Exp2","2016_Mar_24_1419",NA
"Recordings/zavu.wav","yes","z","v","a","no","u","zavu","Test","alveolar","NewConsTestStimuli",NA,NA,NA,NA,0,44,44,14,NA,NA,NA,NA,"No","1.92",124,FALSE,20,59.9168310665,NA,"American English","VSH_Exp2","2016_Mar_24_1419",NA
"Recordings/dufu.wav","yes","d","f","u","yes","u","dufu","Controls","alveolar","NoPatternControls",NA,NA,NA,NA,0,45,45,52,NA,NA,NA,NA,"No","1.337",124,FALSE,20,59.9168310665,NA,"American English","VSH_Exp2","2016_Mar_24_1419",NA
"Recordings/vubu.wav","yes","v","b","u","no","u","vubu","Controls","bilabial","VoicingControls",NA,NA,NA,NA,0,46,46,44,NA,NA,NA,NA,"No","1.554",124,FALSE,20,59.9168310665,NA,"American English","VSH_Exp2","2016_Mar_24_1419",NA
"Recordings/buta.wav","yes","b","t","u","yes","a","buta","Controls","bilabial","StopControls",NA,NA,NA,NA,0,47,47,39,NA,NA,NA,NA,"Yes","1.704",124,FALSE,20,59.9168310665,NA,"American English","VSH_Exp2","2016_Mar_24_1419",NA
"Recordings/piti.wav","no","p","t","i","yes","i","piti","Test","bilabial","OldTestStimuli",NA,NA,NA,NA,0,48,48,6,NA,NA,NA,NA,"Yes","1.003",124,FALSE,20,59.9168310665,NA,"American English","VSH_Exp2","2016_Mar_24_1419",NA
"Recordings/vipi.wav","yes","v","p","i","no","i","vipi","Controls","bilabial","NoPatternControls",NA,NA,NA,NA,0,49,49,54,NA,NA,NA,NA,"No","2.572",124,FALSE,20,59.9168310665,NA,"American English","VSH_Exp2","2016_Mar_24_1419",NA
"Recordings/dupu.wav","yes","d","p","u","yes","u","dupu","Controls","alveolar","StopControls",NA,NA,NA,NA,0,50,50,32,NA,NA,NA,NA,"No","1.32",124,FALSE,20,59.9168310665,NA,"American English","VSH_Exp2","2016_Mar_24_1419",NA
"Recordings/bidi.wav","yes","b","d","i","yes","i","bidi","Test","bilabial","NewWordTestStimuli",NA,NA,NA,NA,0,51,51,27,NA,NA,NA,NA,"Yes","2.037",124,FALSE,20,59.9168310665,NA,"American English","VSH_Exp2","2016_Mar_24_1419",NA
"Recordings/disu.wav","yes","d","s","i","yes","u","disu","Controls","alveolar","NoPatternControls",NA,NA,NA,NA,0,52,52,56,NA,NA,NA,NA,"No","2.454",124,FALSE,20,59.9168310665,NA,"American English","VSH_Exp2","2016_Mar_24_1419",NA
"Recordings/buvi.wav","yes","b","v","u","yes","i","buvi","Controls","bilabial","VoicingControls",NA,NA,NA,NA,0,53,53,47,NA,NA,NA,NA,"Yes","1.871",124,FALSE,20,59.9168310665,NA,"American English","VSH_Exp2","2016_Mar_24_1419",NA
"Recordings/vufu.wav","yes","v","f","u","no","u","vufu","Controls","bilabial","StopControls",NA,NA,NA,NA,0,54,54,34,NA,NA,NA,NA,"No","1.805",124,FALSE,20,59.9168310665,NA,"American English","VSH_Exp2","2016_Mar_24_1419",NA
"Recordings/budu.wav","yes","b","d","u","yes","u","budu","Test","bilabial","NewWordTestStimuli",NA,NA,NA,NA,0,55,55,21,NA,NA,NA,NA,"Yes","2.104",124,FALSE,20,59.9168310665,NA,"American English","VSH_Exp2","2016_Mar_24_1419",NA
"Recordings/suva.wav","no","s","v","u","no","a","suva","Controls","alveolar","StopControls",NA,NA,NA,NA,0,56,56,30,NA,NA,NA,NA,"No","1.921",124,FALSE,20,59.9168310665,NA,"American English","VSH_Exp2","2016_Mar_24_1419",NA
"Recordings/susa.wav","no","s","s","u","no","a","susa","Test","alveolar","NewWordTestStimuli",NA,NA,NA,NA,0,57,57,20,NA,NA,NA,NA,"Yes","2.538",124,FALSE,20,59.9168310665,NA,"American English","VSH_Exp2","2016_Mar_24_1419",NA
"Recordings/bida.wav","yes","b","d","i","yes","a","bida","Test","bilabial","OldTestStimuli",NA,NA,NA,NA,0,58,58,2,NA,NA,NA,NA,"Yes","1.154",124,FALSE,20,59.9168310665,NA,"American English","VSH_Exp2","2016_Mar_24_1419",NA
"Recordings/buva.wav","yes","b","v","u","yes","a","buva","Controls","bilabial","VoicingControls",NA,NA,NA,NA,0,59,59,41,NA,NA,NA,NA,"No","3.14",124,FALSE,20,59.9168310665,NA,"American English","VSH_Exp2","2016_Mar_24_1419",NA
