"SOUND","VOICING","SEGMENT","SEGMENT3","SEGMENT2","STOP","SEGMENT4","STIMULUS","GENERAL_TYPE","PLACE","TYPE","trials.thisRepN","trials.thisTrialN","trials.thisN","trials.thisIndex","trials_2.thisRepN","trials_2.thisTrialN","trials_2.thisN","trials_2.thisIndex","SpaceBar.keys","SpaceBar.rt","key_resp_2.keys","key_resp_2.rt","rating.response","rating.rt","participant","Gender","Age","frameRate","OtherLanguages","NativeLanguage","expName","date","X34"
NA,NA,NA,NA,NA,NA,NA,NA,NA,NA,NA,NA,NA,NA,NA,NA,NA,NA,NA,"space",2.6707611084,NA,NA,NA,NA,126,FALSE,19,61.1662452131,NA,"American English","VSH_Exp2","2016_Mar_24_1419",NA
"Recordings/zavu.wav","yes","z","v","a","no","u","zavu","Training","alveolar","TrainingItems",0,0,0,15,NA,NA,NA,NA,NA,NA,NA,NA,NA,NA,126,FALSE,19,61.1662452131,NA,"American English","VSH_Exp2","2016_Mar_24_1419",NA
"Recordings/vavi.wav","yes","v","v","a","no","i","vavi","Training","bilabial","TrainingItems",0,1,1,11,NA,NA,NA,NA,NA,NA,NA,NA,NA,NA,126,FALSE,19,61.1662452131,NA,"American English","VSH_Exp2","2016_Mar_24_1419",NA
"Recordings/safu.wav","no","s","f","a","no","u","safu","Training","alveolar","TrainingItems",0,2,2,44,NA,NA,NA,NA,NA,NA,NA,NA,NA,NA,126,FALSE,19,61.1662452131,NA,"American English","VSH_Exp2","2016_Mar_24_1419",NA
"Recordings/zuva.wav","yes","z","v","u","no","a","zuva","Training","alveolar","TrainingItems",0,3,3,6,NA,NA,NA,NA,NA,NA,NA,NA,NA,NA,126,FALSE,19,61.1662452131,NA,"American English","VSH_Exp2","2016_Mar_24_1419",NA
"Recordings/zava.wav","yes","z","v","a","no","a","zava","Training","alveolar","TrainingItems",0,4,4,2,NA,NA,NA,NA,NA,NA,NA,NA,NA,NA,126,FALSE,19,61.1662452131,NA,"American English","VSH_Exp2","2016_Mar_24_1419",NA
"Recordings/tati.wav","no","t","t","a","yes","i","tati","Training","alveolar","TrainingItems",0,5,5,82,NA,NA,NA,NA,NA,NA,NA,NA,NA,NA,126,FALSE,19,61.1662452131,NA,"American English","VSH_Exp2","2016_Mar_24_1419",NA
"Recordings/didu.wav","yes","d","d","i","yes","u","didu","Training","alveolar","TrainingItems",0,6,6,17,NA,NA,NA,NA,NA,NA,NA,NA,NA,NA,126,FALSE,19,61.1662452131,NA,"American English","VSH_Exp2","2016_Mar_24_1419",NA
"Recordings/fasu.wav","no","f","s","a","no","u","fasu","Training","bilabial","TrainingItems",0,7,7,78,NA,NA,NA,NA,NA,NA,NA,NA,NA,NA,126,FALSE,19,61.1662452131,NA,"American English","VSH_Exp2","2016_Mar_24_1419",NA
"Recordings/tatu.wav","no","t","t","a","yes","u","tatu","Training","alveolar","TrainingItems",0,8,8,25,NA,NA,NA,NA,NA,NA,NA,NA,NA,NA,126,FALSE,19,61.1662452131,NA,"American English","VSH_Exp2","2016_Mar_24_1419",NA
"Recordings/fifi.wav","no","f","f","i","no","i","fifi","Training","bilabial","TrainingItems",0,9,9,45,NA,NA,NA,NA,NA,NA,NA,NA,NA,NA,126,FALSE,19,61.1662452131,NA,"American English","VSH_Exp2","2016_Mar_24_1419",NA
"Recordings/diba.wav","yes","d","b","i","yes","a","diba","Training","alveolar","TrainingItems",0,10,10,39,NA,NA,NA,NA,NA,NA,NA,NA,NA,NA,126,FALSE,19,61.1662452131,NA,"American English","VSH_Exp2","2016_Mar_24_1419",NA
"Recordings/vazi.wav","yes","v","z","a","no","i","vazi","Training","bilabial","TrainingItems",0,11,11,65,NA,NA,NA,NA,NA,NA,NA,NA,NA,NA,126,FALSE,19,61.1662452131,NA,"American English","VSH_Exp2","2016_Mar_24_1419",NA
"Recordings/zazi.wav","yes","z","z","a","no","i","zazi","Training","alveolar","TrainingItems",0,12,12,14,NA,NA,NA,NA,NA,NA,NA,NA,NA,NA,126,FALSE,19,61.1662452131,NA,"American English","VSH_Exp2","2016_Mar_24_1419",NA
"Recordings/vuzu.wav","yes","v","z","u","no","u","vuzu","Training","bilabial","TrainingItems",0,13,13,73,NA,NA,NA,NA,NA,NA,NA,NA,NA,NA,126,FALSE,19,61.1662452131,NA,"American English","VSH_Exp2","2016_Mar_24_1419",NA
"Recordings/bidu.wav","yes","b","d","i","yes","u","bidu","Training","bilabial","TrainingItems",0,14,14,58,NA,NA,NA,NA,NA,NA,NA,NA,NA,NA,126,FALSE,19,61.1662452131,NA,"American English","VSH_Exp2","2016_Mar_24_1419",NA
"Recordings/ziva.wav","yes","z","v","i","no","a","ziva","Training","alveolar","TrainingItems",0,15,15,53,NA,NA,NA,NA,NA,NA,NA,NA,NA,NA,126,FALSE,19,61.1662452131,NA,"American English","VSH_Exp2","2016_Mar_24_1419",NA
"Recordings/bubi.wav","yes","b","b","u","yes","i","bubi","Training","bilabial","TrainingItems",0,16,16,20,NA,NA,NA,NA,NA,NA,NA,NA,NA,NA,126,FALSE,19,61.1662452131,NA,"American English","VSH_Exp2","2016_Mar_24_1419",NA
"Recordings/bibu.wav","yes","b","b","i","yes","u","bibu","Training","bilabial","TrainingItems",0,17,17,61,NA,NA,NA,NA,NA,NA,NA,NA,NA,NA,126,FALSE,19,61.1662452131,NA,"American English","VSH_Exp2","2016_Mar_24_1419",NA
"Recordings/bubu.wav","yes","b","b","u","yes","u","bubu","Training","bilabial","TrainingItems",0,18,18,42,NA,NA,NA,NA,NA,NA,NA,NA,NA,NA,126,FALSE,19,61.1662452131,NA,"American English","VSH_Exp2","2016_Mar_24_1419",NA
"Recordings/sisu.wav","no","s","s","i","no","u","sisu","Training","alveolar","TrainingItems",0,19,19,40,NA,NA,NA,NA,NA,NA,NA,NA,NA,NA,126,FALSE,19,61.1662452131,NA,"American English","VSH_Exp2","2016_Mar_24_1419",NA
"Recordings/sufi.wav","no","s","f","u","no","i","sufi","Training","alveolar","TrainingItems",0,20,20,36,NA,NA,NA,NA,NA,NA,NA,NA,NA,NA,126,FALSE,19,61.1662452131,NA,"American English","VSH_Exp2","2016_Mar_24_1419",NA
"Recordings/bibi.wav","yes","b","b","i","yes","i","bibi","Training","bilabial","TrainingItems",0,21,21,62,NA,NA,NA,NA,NA,NA,NA,NA,NA,NA,126,FALSE,19,61.1662452131,NA,"American English","VSH_Exp2","2016_Mar_24_1419",NA
"Recordings/fifu.wav","no","f","f","i","no","u","fifu","Training","bilabial","TrainingItems",0,22,22,92,NA,NA,NA,NA,NA,NA,NA,NA,NA,NA,126,FALSE,19,61.1662452131,NA,"American English","VSH_Exp2","2016_Mar_24_1419",NA
"Recordings/sasi.wav","no","s","s","a","no","i","sasi","Training","alveolar","TrainingItems",0,23,23,54,NA,NA,NA,NA,NA,NA,NA,NA,NA,NA,126,FALSE,19,61.1662452131,NA,"American English","VSH_Exp2","2016_Mar_24_1419",NA
"Recordings/tata.wav","no","t","t","a","yes","a","tata","Training","alveolar","TrainingItems",0,24,24,56,NA,NA,NA,NA,NA,NA,NA,NA,NA,NA,126,FALSE,19,61.1662452131,NA,"American English","VSH_Exp2","2016_Mar_24_1419",NA
"Recordings/babi.wav","yes","b","b","a","yes","i","babi","Training","bilabial","TrainingItems",0,25,25,60,NA,NA,NA,NA,NA,NA,NA,NA,NA,NA,126,FALSE,19,61.1662452131,NA,"American English","VSH_Exp2","2016_Mar_24_1419",NA
"Recordings/dudi.wav","yes","d","d","u","yes","i","dudi","Training","alveolar","TrainingItems",0,26,26,68,NA,NA,NA,NA,NA,NA,NA,NA,NA,NA,126,FALSE,19,61.1662452131,NA,"American English","VSH_Exp2","2016_Mar_24_1419",NA
"Recordings/zizi.wav","yes","z","z","i","no","i","zizi","Training","alveolar","TrainingItems",0,27,27,5,NA,NA,NA,NA,NA,NA,NA,NA,NA,NA,126,FALSE,19,61.1662452131,NA,"American English","VSH_Exp2","2016_Mar_24_1419",NA
"Recordings/budu.wav","yes","b","d","u","yes","u","budu","Training","bilabial","TrainingItems",0,28,28,0,NA,NA,NA,NA,NA,NA,NA,NA,NA,NA,126,FALSE,19,61.1662452131,NA,"American English","VSH_Exp2","2016_Mar_24_1419",NA
"Recordings/tita.wav","no","t","t","i","yes","a","tita","Training","alveolar","TrainingItems",0,29,29,67,NA,NA,NA,NA,NA,NA,NA,NA,NA,NA,126,FALSE,19,61.1662452131,NA,"American English","VSH_Exp2","2016_Mar_24_1419",NA
"Recordings/fasi.wav","no","f","s","a","no","i","fasi","Training","bilabial","TrainingItems",0,30,30,26,NA,NA,NA,NA,NA,NA,NA,NA,NA,NA,126,FALSE,19,61.1662452131,NA,"American English","VSH_Exp2","2016_Mar_24_1419",NA
"Recordings/papu.wav","no","p","p","a","yes","u","papu","Training","bilabial","TrainingItems",0,31,31,57,NA,NA,NA,NA,NA,NA,NA,NA,NA,NA,126,FALSE,19,61.1662452131,NA,"American English","VSH_Exp2","2016_Mar_24_1419",NA
"Recordings/safi.wav","no","s","f","a","no","i","safi","Training","alveolar","TrainingItems",0,32,32,76,NA,NA,NA,NA,NA,NA,NA,NA,NA,NA,126,FALSE,19,61.1662452131,NA,"American English","VSH_Exp2","2016_Mar_24_1419",NA
"Recordings/sifi.wav","no","s","f","i","no","i","sifi","Training","alveolar","TrainingItems",0,33,33,89,NA,NA,NA,NA,NA,NA,NA,NA,NA,NA,126,FALSE,19,61.1662452131,NA,"American English","VSH_Exp2","2016_Mar_24_1419",NA
"Recordings/daba.wav","yes","d","b","a","yes","a","daba","Training","alveolar","TrainingItems",0,34,34,59,NA,NA,NA,NA,NA,NA,NA,NA,NA,NA,126,FALSE,19,61.1662452131,NA,"American English","VSH_Exp2","2016_Mar_24_1419",NA
"Recordings/vivu.wav","yes","v","v","i","no","u","vivu","Training","bilabial","TrainingItems",0,35,35,23,NA,NA,NA,NA,NA,NA,NA,NA,NA,NA,126,FALSE,19,61.1662452131,NA,"American English","VSH_Exp2","2016_Mar_24_1419",NA
"Recordings/biba.wav","yes","b","b","i","yes","a","biba","Training","bilabial","TrainingItems",0,36,36,46,NA,NA,NA,NA,NA,NA,NA,NA,NA,NA,126,FALSE,19,61.1662452131,NA,"American English","VSH_Exp2","2016_Mar_24_1419",NA
"Recordings/vazu.wav","yes","v","z","a","no","u","vazu","Training","bilabial","TrainingItems",0,37,37,80,NA,NA,NA,NA,NA,NA,NA,NA,NA,NA,126,FALSE,19,61.1662452131,NA,"American English","VSH_Exp2","2016_Mar_24_1419",NA
"Recordings/dada.wav","yes","d","d","a","yes","a","dada","Training","alveolar","TrainingItems",0,38,38,24,NA,NA,NA,NA,NA,NA,NA,NA,NA,NA,126,FALSE,19,61.1662452131,NA,"American English","VSH_Exp2","2016_Mar_24_1419",NA
"Recordings/buba.wav","yes","b","b","u","yes","a","buba","Training","bilabial","TrainingItems",0,39,39,9,NA,NA,NA,NA,NA,NA,NA,NA,NA,NA,126,FALSE,19,61.1662452131,NA,"American English","VSH_Exp2","2016_Mar_24_1419",NA
"Recordings/dubu.wav","yes","d","b","u","yes","u","dubu","Training","alveolar","TrainingItems",0,40,40,12,NA,NA,NA,NA,NA,NA,NA,NA,NA,NA,126,FALSE,19,61.1662452131,NA,"American English","VSH_Exp2","2016_Mar_24_1419",NA
"Recordings/zizu.wav","yes","z","z","i","no","u","zizu","Training","alveolar","TrainingItems",0,41,41,13,NA,NA,NA,NA,NA,NA,NA,NA,NA,NA,126,FALSE,19,61.1662452131,NA,"American English","VSH_Exp2","2016_Mar_24_1419",NA
"Recordings/sifu.wav","no","s","f","i","no","u","sifu","Training","alveolar","TrainingItems",0,42,42,32,NA,NA,NA,NA,NA,NA,NA,NA,NA,NA,126,FALSE,19,61.1662452131,NA,"American English","VSH_Exp2","2016_Mar_24_1419",NA
"Recordings/fafa.wav","no","f","f","a","no","a","fafa","Training","bilabial","TrainingItems",0,43,43,31,NA,NA,NA,NA,NA,NA,NA,NA,NA,NA,126,FALSE,19,61.1662452131,NA,"American English","VSH_Exp2","2016_Mar_24_1419",NA
"Recordings/zivu.wav","yes","z","v","i","no","u","zivu","Training","alveolar","TrainingItems",0,44,44,64,NA,NA,NA,NA,NA,NA,NA,NA,NA,NA,126,FALSE,19,61.1662452131,NA,"American English","VSH_Exp2","2016_Mar_24_1419",NA
"Recordings/tuti.wav","no","t","t","u","yes","i","tuti","Training","alveolar","TrainingItems",0,45,45,94,NA,NA,NA,NA,NA,NA,NA,NA,NA,NA,126,FALSE,19,61.1662452131,NA,"American English","VSH_Exp2","2016_Mar_24_1419",NA
"Recordings/dibi.wav","yes","d","b","i","yes","i","dibi","Training","alveolar","TrainingItems",0,46,46,96,NA,NA,NA,NA,NA,NA,NA,NA,NA,NA,126,FALSE,19,61.1662452131,NA,"American English","VSH_Exp2","2016_Mar_24_1419",NA
"Recordings/budi.wav","yes","b","d","u","yes","i","budi","Training","bilabial","TrainingItems",0,47,47,10,NA,NA,NA,NA,NA,NA,NA,NA,NA,NA,126,FALSE,19,61.1662452131,NA,"American English","VSH_Exp2","2016_Mar_24_1419",NA
"Recordings/zaza.wav","yes","z","z","a","no","a","zaza","Training","alveolar","TrainingItems",0,48,48,97,NA,NA,NA,NA,NA,NA,NA,NA,NA,NA,126,FALSE,19,61.1662452131,NA,"American English","VSH_Exp2","2016_Mar_24_1419",NA
"Recordings/vuzi.wav","yes","v","z","u","no","i","vuzi","Training","bilabial","TrainingItems",0,49,49,93,NA,NA,NA,NA,NA,NA,NA,NA,NA,NA,126,FALSE,19,61.1662452131,NA,"American English","VSH_Exp2","2016_Mar_24_1419",NA
"Recordings/titu.wav","no","t","t","i","yes","u","titu","Training","alveolar","TrainingItems",0,50,50,34,NA,NA,NA,NA,NA,NA,NA,NA,NA,NA,126,FALSE,19,61.1662452131,NA,"American English","VSH_Exp2","2016_Mar_24_1419",NA
"Recordings/dadu.wav","yes","d","d","a","yes","u","dadu","Training","alveolar","TrainingItems",0,51,51,98,NA,NA,NA,NA,NA,NA,NA,NA,NA,NA,126,FALSE,19,61.1662452131,NA,"American English","VSH_Exp2","2016_Mar_24_1419",NA
"Recordings/fufu.wav","no","f","f","u","no","u","fufu","Training","bilabial","TrainingItems",0,52,52,63,NA,NA,NA,NA,NA,NA,NA,NA,NA,NA,126,FALSE,19,61.1662452131,NA,"American English","VSH_Exp2","2016_Mar_24_1419",NA
"Recordings/fisu.wav","no","f","s","i","no","u","fisu","Training","bilabial","TrainingItems",0,53,53,16,NA,NA,NA,NA,NA,NA,NA,NA,NA,NA,126,FALSE,19,61.1662452131,NA,"American English","VSH_Exp2","2016_Mar_24_1419",NA
"Recordings/fafi.wav","no","f","f","a","no","i","fafi","Training","bilabial","TrainingItems",0,54,54,18,NA,NA,NA,NA,NA,NA,NA,NA,NA,NA,126,FALSE,19,61.1662452131,NA,"American English","VSH_Exp2","2016_Mar_24_1419",NA
"Recordings/zazu.wav","yes","z","z","a","no","u","zazu","Training","alveolar","TrainingItems",0,55,55,72,NA,NA,NA,NA,NA,NA,NA,NA,NA,NA,126,FALSE,19,61.1662452131,NA,"American English","VSH_Exp2","2016_Mar_24_1419",NA
"Recordings/didi.wav","yes","d","d","i","yes","i","didi","Training","alveolar","TrainingItems",0,56,56,84,NA,NA,NA,NA,NA,NA,NA,NA,NA,NA,126,FALSE,19,61.1662452131,NA,"American English","VSH_Exp2","2016_Mar_24_1419",NA
"Recordings/buda.wav","yes","b","d","u","yes","a","buda","Training","bilabial","TrainingItems",0,57,57,22,NA,NA,NA,NA,NA,NA,NA,NA,NA,NA,126,FALSE,19,61.1662452131,NA,"American English","VSH_Exp2","2016_Mar_24_1419",NA
"Recordings/vizu.wav","yes","v","z","i","no","u","vizu","Training","bilabial","TrainingItems",0,58,58,95,NA,NA,NA,NA,NA,NA,NA,NA,NA,NA,126,FALSE,19,61.1662452131,NA,"American English","VSH_Exp2","2016_Mar_24_1419",NA
"Recordings/vaza.wav","yes","v","z","a","no","a","vaza","Training","bilabial","TrainingItems",0,59,59,85,NA,NA,NA,NA,NA,NA,NA,NA,NA,NA,126,FALSE,19,61.1662452131,NA,"American English","VSH_Exp2","2016_Mar_24_1419",NA
"Recordings/duda.wav","yes","d","d","u","yes","a","duda","Training","alveolar","TrainingItems",0,60,60,81,NA,NA,NA,NA,NA,NA,NA,NA,NA,NA,126,FALSE,19,61.1662452131,NA,"American English","VSH_Exp2","2016_Mar_24_1419",NA
"Recordings/fisa.wav","no","f","s","i","no","a","fisa","Training","bilabial","TrainingItems",0,61,61,49,NA,NA,NA,NA,NA,NA,NA,NA,NA,NA,126,FALSE,19,61.1662452131,NA,"American English","VSH_Exp2","2016_Mar_24_1419",NA
"Recordings/titi.wav","no","t","t","i","yes","i","titi","Training","alveolar","TrainingItems",0,62,62,48,NA,NA,NA,NA,NA,NA,NA,NA,NA,NA,126,FALSE,19,61.1662452131,NA,"American English","VSH_Exp2","2016_Mar_24_1419",NA
"Recordings/zuza.wav","yes","z","z","u","no","a","zuza","Training","alveolar","TrainingItems",0,63,63,70,NA,NA,NA,NA,NA,NA,NA,NA,NA,NA,126,FALSE,19,61.1662452131,NA,"American English","VSH_Exp2","2016_Mar_24_1419",NA
"Recordings/fusi.wav","no","f","s","u","no","i","fusi","Training","bilabial","TrainingItems",0,64,64,4,NA,NA,NA,NA,NA,NA,NA,NA,NA,NA,126,FALSE,19,61.1662452131,NA,"American English","VSH_Exp2","2016_Mar_24_1419",NA
"Recordings/badu.wav","yes","b","d","a","yes","u","badu","Training","bilabial","TrainingItems",0,65,65,37,NA,NA,NA,NA,NA,NA,NA,NA,NA,NA,126,FALSE,19,61.1662452131,NA,"American English","VSH_Exp2","2016_Mar_24_1419",NA
"Recordings/dabu.wav","yes","d","b","a","yes","u","dabu","Training","alveolar","TrainingItems",0,66,66,8,NA,NA,NA,NA,NA,NA,NA,NA,NA,NA,126,FALSE,19,61.1662452131,NA,"American English","VSH_Exp2","2016_Mar_24_1419",NA
"Recordings/safa.wav","no","s","f","a","no","a","safa","Training","alveolar","TrainingItems",0,67,67,29,NA,NA,NA,NA,NA,NA,NA,NA,NA,NA,126,FALSE,19,61.1662452131,NA,"American English","VSH_Exp2","2016_Mar_24_1419",NA
"Recordings/dudu.wav","yes","d","d","u","yes","u","dudu","Training","alveolar","TrainingItems",0,68,68,21,NA,NA,NA,NA,NA,NA,NA,NA,NA,NA,126,FALSE,19,61.1662452131,NA,"American English","VSH_Exp2","2016_Mar_24_1419",NA
"Recordings/pipu.wav","no","p","p","i","yes","u","pipu","Training","bilabial","TrainingItems",0,69,69,74,NA,NA,NA,NA,NA,NA,NA,NA,NA,NA,126,FALSE,19,61.1662452131,NA,"American English","VSH_Exp2","2016_Mar_24_1419",NA
"Recordings/susu.wav","no","s","s","u","no","u","susu","Training","alveolar","TrainingItems",0,70,70,28,NA,NA,NA,NA,NA,NA,NA,NA,NA,NA,126,FALSE,19,61.1662452131,NA,"American English","VSH_Exp2","2016_Mar_24_1419",NA
"Recordings/vuva.wav","yes","v","v","u","no","a","vuva","Training","bilabial","TrainingItems",0,71,71,7,NA,NA,NA,NA,NA,NA,NA,NA,NA,NA,126,FALSE,19,61.1662452131,NA,"American English","VSH_Exp2","2016_Mar_24_1419",NA
"Recordings/dabi.wav","yes","d","b","a","yes","i","dabi","Training","alveolar","TrainingItems",0,72,72,35,NA,NA,NA,NA,NA,NA,NA,NA,NA,NA,126,FALSE,19,61.1662452131,NA,"American English","VSH_Exp2","2016_Mar_24_1419",NA
"Recordings/fifa.wav","no","f","f","i","no","a","fifa","Training","bilabial","TrainingItems",0,73,73,79,NA,NA,NA,NA,NA,NA,NA,NA,NA,NA,126,FALSE,19,61.1662452131,NA,"American English","VSH_Exp2","2016_Mar_24_1419",NA
"Recordings/dibu.wav","yes","d","b","i","yes","u","dibu","Training","alveolar","TrainingItems",0,74,74,38,NA,NA,NA,NA,NA,NA,NA,NA,NA,NA,126,FALSE,19,61.1662452131,NA,"American English","VSH_Exp2","2016_Mar_24_1419",NA
"Recordings/sisa.wav","no","s","s","i","no","a","sisa","Training","alveolar","TrainingItems",0,75,75,69,NA,NA,NA,NA,NA,NA,NA,NA,NA,NA,126,FALSE,19,61.1662452131,NA,"American English","VSH_Exp2","2016_Mar_24_1419",NA
"Recordings/dubi.wav","yes","d","b","u","yes","i","dubi","Training","alveolar","TrainingItems",0,76,76,41,NA,NA,NA,NA,NA,NA,NA,NA,NA,NA,126,FALSE,19,61.1662452131,NA,"American English","VSH_Exp2","2016_Mar_24_1419",NA
"Recordings/viva.wav","yes","v","v","i","no","a","viva","Training","bilabial","TrainingItems",0,77,77,90,NA,NA,NA,NA,NA,NA,NA,NA,NA,NA,126,FALSE,19,61.1662452131,NA,"American English","VSH_Exp2","2016_Mar_24_1419",NA
"Recordings/sifa.wav","no","s","f","i","no","a","sifa","Training","alveolar","TrainingItems",0,78,78,19,NA,NA,NA,NA,NA,NA,NA,NA,NA,NA,126,FALSE,19,61.1662452131,NA,"American English","VSH_Exp2","2016_Mar_24_1419",NA
"Recordings/zuvu.wav","yes","z","v","u","no","u","zuvu","Training","alveolar","TrainingItems",0,79,79,91,NA,NA,NA,NA,NA,NA,NA,NA,NA,NA,126,FALSE,19,61.1662452131,NA,"American English","VSH_Exp2","2016_Mar_24_1419",NA
"Recordings/susi.wav","no","s","s","u","no","i","susi","Training","alveolar","TrainingItems",0,80,80,99,NA,NA,NA,NA,NA,NA,NA,NA,NA,NA,126,FALSE,19,61.1662452131,NA,"American English","VSH_Exp2","2016_Mar_24_1419",NA
"Recordings/pupa.wav","no","p","p","u","yes","a","pupa","Training","bilabial","TrainingItems",0,81,81,1,NA,NA,NA,NA,NA,NA,NA,NA,NA,NA,126,FALSE,19,61.1662452131,NA,"American English","VSH_Exp2","2016_Mar_24_1419",NA
"Recordings/vavu.wav","yes","v","v","a","no","u","vavu","Training","bilabial","TrainingItems",0,82,82,77,NA,NA,NA,NA,NA,NA,NA,NA,NA,NA,126,FALSE,19,61.1662452131,NA,"American English","VSH_Exp2","2016_Mar_24_1419",NA
"Recordings/vivi.wav","yes","v","v","i","no","i","vivi","Training","bilabial","TrainingItems",0,83,83,88,NA,NA,NA,NA,NA,NA,NA,NA,NA,NA,126,FALSE,19,61.1662452131,NA,"American English","VSH_Exp2","2016_Mar_24_1419",NA
"Recordings/sasu.wav","no","s","s","a","no","u","sasu","Training","alveolar","TrainingItems",0,84,84,33,NA,NA,NA,NA,NA,NA,NA,NA,NA,NA,126,FALSE,19,61.1662452131,NA,"American English","VSH_Exp2","2016_Mar_24_1419",NA
"Recordings/baba.wav","yes","b","b","a","yes","a","baba","Training","bilabial","TrainingItems",0,85,85,47,NA,NA,NA,NA,NA,NA,NA,NA,NA,NA,126,FALSE,19,61.1662452131,NA,"American English","VSH_Exp2","2016_Mar_24_1419",NA
"Recordings/pupu.wav","no","p","p","u","yes","u","pupu","Training","bilabial","TrainingItems",0,86,86,71,NA,NA,NA,NA,NA,NA,NA,NA,NA,NA,126,FALSE,19,61.1662452131,NA,"American English","VSH_Exp2","2016_Mar_24_1419",NA
"Recordings/babu.wav","yes","b","b","a","yes","u","babu","Training","bilabial","TrainingItems",0,87,87,3,NA,NA,NA,NA,NA,NA,NA,NA,NA,NA,126,FALSE,19,61.1662452131,NA,"American English","VSH_Exp2","2016_Mar_24_1419",NA
"Recordings/vava.wav","yes","v","v","a","no","a","vava","Training","bilabial","TrainingItems",0,88,88,75,NA,NA,NA,NA,NA,NA,NA,NA,NA,NA,126,FALSE,19,61.1662452131,NA,"American English","VSH_Exp2","2016_Mar_24_1419",NA
"Recordings/fufa.wav","no","f","f","u","no","a","fufa","Training","bilabial","TrainingItems",0,89,89,87,NA,NA,NA,NA,NA,NA,NA,NA,NA,NA,126,FALSE,19,61.1662452131,NA,"American English","VSH_Exp2","2016_Mar_24_1419",NA
"Recordings/zavi.wav","yes","z","v","a","no","i","zavi","Training","alveolar","TrainingItems",0,90,90,52,NA,NA,NA,NA,NA,NA,NA,NA,NA,NA,126,FALSE,19,61.1662452131,NA,"American English","VSH_Exp2","2016_Mar_24_1419",NA
"Recordings/bida.wav","yes","b","d","i","yes","a","bida","Training","bilabial","TrainingItems",0,91,91,86,NA,NA,NA,NA,NA,NA,NA,NA,NA,NA,126,FALSE,19,61.1662452131,NA,"American English","VSH_Exp2","2016_Mar_24_1419",NA
"Recordings/fisi.wav","no","f","s","i","no","i","fisi","Training","bilabial","TrainingItems",0,92,92,66,NA,NA,NA,NA,NA,NA,NA,NA,NA,NA,126,FALSE,19,61.1662452131,NA,"American English","VSH_Exp2","2016_Mar_24_1419",NA
"Recordings/sufu.wav","no","s","f","u","no","u","sufu","Training","alveolar","TrainingItems",0,93,93,51,NA,NA,NA,NA,NA,NA,NA,NA,NA,NA,126,FALSE,19,61.1662452131,NA,"American English","VSH_Exp2","2016_Mar_24_1419",NA
"Recordings/dida.wav","yes","d","d","i","yes","a","dida","Training","alveolar","TrainingItems",0,94,94,43,NA,NA,NA,NA,NA,NA,NA,NA,NA,NA,126,FALSE,19,61.1662452131,NA,"American English","VSH_Exp2","2016_Mar_24_1419",NA
"Recordings/papa.wav","no","p","p","a","yes","a","papa","Training","bilabial","TrainingItems",0,95,95,27,NA,NA,NA,NA,NA,NA,NA,NA,NA,NA,126,FALSE,19,61.1662452131,NA,"American English","VSH_Exp2","2016_Mar_24_1419",NA
"Recordings/vuvi.wav","yes","v","v","u","no","i","vuvi","Training","bilabial","TrainingItems",0,96,96,83,NA,NA,NA,NA,NA,NA,NA,NA,NA,NA,126,FALSE,19,61.1662452131,NA,"American English","VSH_Exp2","2016_Mar_24_1419",NA
"Recordings/pupi.wav","no","p","p","u","yes","i","pupi","Training","bilabial","TrainingItems",0,97,97,50,NA,NA,NA,NA,NA,NA,NA,NA,NA,NA,126,FALSE,19,61.1662452131,NA,"American English","VSH_Exp2","2016_Mar_24_1419",NA
"Recordings/fasa.wav","no","f","s","a","no","a","fasa","Training","bilabial","TrainingItems",0,98,98,55,NA,NA,NA,NA,NA,NA,NA,NA,NA,NA,126,FALSE,19,61.1662452131,NA,"American English","VSH_Exp2","2016_Mar_24_1419",NA
"Recordings/pipi.wav","no","p","p","i","yes","i","pipi","Training","bilabial","TrainingItems",0,99,99,30,NA,NA,NA,NA,NA,NA,NA,NA,NA,NA,126,FALSE,19,61.1662452131,NA,"American English","VSH_Exp2","2016_Mar_24_1419",NA
"Recordings/sifi.wav","no","s","f","i","no","i","sifi","Training","alveolar","TrainingItems",1,0,100,89,NA,NA,NA,NA,NA,NA,NA,NA,NA,NA,126,FALSE,19,61.1662452131,NA,"American English","VSH_Exp2","2016_Mar_24_1419",NA
"Recordings/viva.wav","yes","v","v","i","no","a","viva","Training","bilabial","TrainingItems",1,1,101,90,NA,NA,NA,NA,NA,NA,NA,NA,NA,NA,126,FALSE,19,61.1662452131,NA,"American English","VSH_Exp2","2016_Mar_24_1419",NA
"Recordings/bubi.wav","yes","b","b","u","yes","i","bubi","Training","bilabial","TrainingItems",1,2,102,20,NA,NA,NA,NA,NA,NA,NA,NA,NA,NA,126,FALSE,19,61.1662452131,NA,"American English","VSH_Exp2","2016_Mar_24_1419",NA
"Recordings/dabi.wav","yes","d","b","a","yes","i","dabi","Training","alveolar","TrainingItems",1,3,103,35,NA,NA,NA,NA,NA,NA,NA,NA,NA,NA,126,FALSE,19,61.1662452131,NA,"American English","VSH_Exp2","2016_Mar_24_1419",NA
"Recordings/zazi.wav","yes","z","z","a","no","i","zazi","Training","alveolar","TrainingItems",1,4,104,14,NA,NA,NA,NA,NA,NA,NA,NA,NA,NA,126,FALSE,19,61.1662452131,NA,"American English","VSH_Exp2","2016_Mar_24_1419",NA
"Recordings/vavu.wav","yes","v","v","a","no","u","vavu","Training","bilabial","TrainingItems",1,5,105,77,NA,NA,NA,NA,NA,NA,NA,NA,NA,NA,126,FALSE,19,61.1662452131,NA,"American English","VSH_Exp2","2016_Mar_24_1419",NA
"Recordings/sasu.wav","no","s","s","a","no","u","sasu","Training","alveolar","TrainingItems",1,6,106,33,NA,NA,NA,NA,NA,NA,NA,NA,NA,NA,126,FALSE,19,61.1662452131,NA,"American English","VSH_Exp2","2016_Mar_24_1419",NA
"Recordings/papa.wav","no","p","p","a","yes","a","papa","Training","bilabial","TrainingItems",1,7,107,27,NA,NA,NA,NA,NA,NA,NA,NA,NA,NA,126,FALSE,19,61.1662452131,NA,"American English","VSH_Exp2","2016_Mar_24_1419",NA
"Recordings/budi.wav","yes","b","d","u","yes","i","budi","Training","bilabial","TrainingItems",1,8,108,10,NA,NA,NA,NA,NA,NA,NA,NA,NA,NA,126,FALSE,19,61.1662452131,NA,"American English","VSH_Exp2","2016_Mar_24_1419",NA
"Recordings/tuti.wav","no","t","t","u","yes","i","tuti","Training","alveolar","TrainingItems",1,9,109,94,NA,NA,NA,NA,NA,NA,NA,NA,NA,NA,126,FALSE,19,61.1662452131,NA,"American English","VSH_Exp2","2016_Mar_24_1419",NA
"Recordings/sifu.wav","no","s","f","i","no","u","sifu","Training","alveolar","TrainingItems",1,10,110,32,NA,NA,NA,NA,NA,NA,NA,NA,NA,NA,126,FALSE,19,61.1662452131,NA,"American English","VSH_Exp2","2016_Mar_24_1419",NA
"Recordings/bibu.wav","yes","b","b","i","yes","u","bibu","Training","bilabial","TrainingItems",1,11,111,61,NA,NA,NA,NA,NA,NA,NA,NA,NA,NA,126,FALSE,19,61.1662452131,NA,"American English","VSH_Exp2","2016_Mar_24_1419",NA
"Recordings/safi.wav","no","s","f","a","no","i","safi","Training","alveolar","TrainingItems",1,12,112,76,NA,NA,NA,NA,NA,NA,NA,NA,NA,NA,126,FALSE,19,61.1662452131,NA,"American English","VSH_Exp2","2016_Mar_24_1419",NA
"Recordings/vazi.wav","yes","v","z","a","no","i","vazi","Training","bilabial","TrainingItems",1,13,113,65,NA,NA,NA,NA,NA,NA,NA,NA,NA,NA,126,FALSE,19,61.1662452131,NA,"American English","VSH_Exp2","2016_Mar_24_1419",NA
"Recordings/zavi.wav","yes","z","v","a","no","i","zavi","Training","alveolar","TrainingItems",1,14,114,52,NA,NA,NA,NA,NA,NA,NA,NA,NA,NA,126,FALSE,19,61.1662452131,NA,"American English","VSH_Exp2","2016_Mar_24_1419",NA
"Recordings/fusi.wav","no","f","s","u","no","i","fusi","Training","bilabial","TrainingItems",1,15,115,4,NA,NA,NA,NA,NA,NA,NA,NA,NA,NA,126,FALSE,19,61.1662452131,NA,"American English","VSH_Exp2","2016_Mar_24_1419",NA
"Recordings/buda.wav","yes","b","d","u","yes","a","buda","Training","bilabial","TrainingItems",1,16,116,22,NA,NA,NA,NA,NA,NA,NA,NA,NA,NA,126,FALSE,19,61.1662452131,NA,"American English","VSH_Exp2","2016_Mar_24_1419",NA
"Recordings/susi.wav","no","s","s","u","no","i","susi","Training","alveolar","TrainingItems",1,17,117,99,NA,NA,NA,NA,NA,NA,NA,NA,NA,NA,126,FALSE,19,61.1662452131,NA,"American English","VSH_Exp2","2016_Mar_24_1419",NA
"Recordings/fasi.wav","no","f","s","a","no","i","fasi","Training","bilabial","TrainingItems",1,18,118,26,NA,NA,NA,NA,NA,NA,NA,NA,NA,NA,126,FALSE,19,61.1662452131,NA,"American English","VSH_Exp2","2016_Mar_24_1419",NA
"Recordings/vavi.wav","yes","v","v","a","no","i","vavi","Training","bilabial","TrainingItems",1,19,119,11,NA,NA,NA,NA,NA,NA,NA,NA,NA,NA,126,FALSE,19,61.1662452131,NA,"American English","VSH_Exp2","2016_Mar_24_1419",NA
"Recordings/fasu.wav","no","f","s","a","no","u","fasu","Training","bilabial","TrainingItems",1,20,120,78,NA,NA,NA,NA,NA,NA,NA,NA,NA,NA,126,FALSE,19,61.1662452131,NA,"American English","VSH_Exp2","2016_Mar_24_1419",NA
"Recordings/dubu.wav","yes","d","b","u","yes","u","dubu","Training","alveolar","TrainingItems",1,21,121,12,NA,NA,NA,NA,NA,NA,NA,NA,NA,NA,126,FALSE,19,61.1662452131,NA,"American English","VSH_Exp2","2016_Mar_24_1419",NA
"Recordings/dibu.wav","yes","d","b","i","yes","u","dibu","Training","alveolar","TrainingItems",1,22,122,38,NA,NA,NA,NA,NA,NA,NA,NA,NA,NA,126,FALSE,19,61.1662452131,NA,"American English","VSH_Exp2","2016_Mar_24_1419",NA
"Recordings/dudi.wav","yes","d","d","u","yes","i","dudi","Training","alveolar","TrainingItems",1,23,123,68,NA,NA,NA,NA,NA,NA,NA,NA,NA,NA,126,FALSE,19,61.1662452131,NA,"American English","VSH_Exp2","2016_Mar_24_1419",NA
"Recordings/duda.wav","yes","d","d","u","yes","a","duda","Training","alveolar","TrainingItems",1,24,124,81,NA,NA,NA,NA,NA,NA,NA,NA,NA,NA,126,FALSE,19,61.1662452131,NA,"American English","VSH_Exp2","2016_Mar_24_1419",NA
"Recordings/vuzi.wav","yes","v","z","u","no","i","vuzi","Training","bilabial","TrainingItems",1,25,125,93,NA,NA,NA,NA,NA,NA,NA,NA,NA,NA,126,FALSE,19,61.1662452131,NA,"American English","VSH_Exp2","2016_Mar_24_1419",NA
"Recordings/badu.wav","yes","b","d","a","yes","u","badu","Training","bilabial","TrainingItems",1,26,126,37,NA,NA,NA,NA,NA,NA,NA,NA,NA,NA,126,FALSE,19,61.1662452131,NA,"American English","VSH_Exp2","2016_Mar_24_1419",NA
"Recordings/vizu.wav","yes","v","z","i","no","u","vizu","Training","bilabial","TrainingItems",1,27,127,95,NA,NA,NA,NA,NA,NA,NA,NA,NA,NA,126,FALSE,19,61.1662452131,NA,"American English","VSH_Exp2","2016_Mar_24_1419",NA
"Recordings/tatu.wav","no","t","t","a","yes","u","tatu","Training","alveolar","TrainingItems",1,28,128,25,NA,NA,NA,NA,NA,NA,NA,NA,NA,NA,126,FALSE,19,61.1662452131,NA,"American English","VSH_Exp2","2016_Mar_24_1419",NA
"Recordings/dabu.wav","yes","d","b","a","yes","u","dabu","Training","alveolar","TrainingItems",1,29,129,8,NA,NA,NA,NA,NA,NA,NA,NA,NA,NA,126,FALSE,19,61.1662452131,NA,"American English","VSH_Exp2","2016_Mar_24_1419",NA
"Recordings/dudu.wav","yes","d","d","u","yes","u","dudu","Training","alveolar","TrainingItems",1,30,130,21,NA,NA,NA,NA,NA,NA,NA,NA,NA,NA,126,FALSE,19,61.1662452131,NA,"American English","VSH_Exp2","2016_Mar_24_1419",NA
"Recordings/zazu.wav","yes","z","z","a","no","u","zazu","Training","alveolar","TrainingItems",1,31,131,72,NA,NA,NA,NA,NA,NA,NA,NA,NA,NA,126,FALSE,19,61.1662452131,NA,"American English","VSH_Exp2","2016_Mar_24_1419",NA
"Recordings/vuvi.wav","yes","v","v","u","no","i","vuvi","Training","bilabial","TrainingItems",1,32,132,83,NA,NA,NA,NA,NA,NA,NA,NA,NA,NA,126,FALSE,19,61.1662452131,NA,"American English","VSH_Exp2","2016_Mar_24_1419",NA
"Recordings/zuvu.wav","yes","z","v","u","no","u","zuvu","Training","alveolar","TrainingItems",1,33,133,91,NA,NA,NA,NA,NA,NA,NA,NA,NA,NA,126,FALSE,19,61.1662452131,NA,"American English","VSH_Exp2","2016_Mar_24_1419",NA
"Recordings/vivi.wav","yes","v","v","i","no","i","vivi","Training","bilabial","TrainingItems",1,34,134,88,NA,NA,NA,NA,NA,NA,NA,NA,NA,NA,126,FALSE,19,61.1662452131,NA,"American English","VSH_Exp2","2016_Mar_24_1419",NA
"Recordings/baba.wav","yes","b","b","a","yes","a","baba","Training","bilabial","TrainingItems",1,35,135,47,NA,NA,NA,NA,NA,NA,NA,NA,NA,NA,126,FALSE,19,61.1662452131,NA,"American English","VSH_Exp2","2016_Mar_24_1419",NA
"Recordings/fafa.wav","no","f","f","a","no","a","fafa","Training","bilabial","TrainingItems",1,36,136,31,NA,NA,NA,NA,NA,NA,NA,NA,NA,NA,126,FALSE,19,61.1662452131,NA,"American English","VSH_Exp2","2016_Mar_24_1419",NA
"Recordings/safu.wav","no","s","f","a","no","u","safu","Training","alveolar","TrainingItems",1,37,137,44,NA,NA,NA,NA,NA,NA,NA,NA,NA,NA,126,FALSE,19,61.1662452131,NA,"American English","VSH_Exp2","2016_Mar_24_1419",NA
"Recordings/pupa.wav","no","p","p","u","yes","a","pupa","Training","bilabial","TrainingItems",1,38,138,1,NA,NA,NA,NA,NA,NA,NA,NA,NA,NA,126,FALSE,19,61.1662452131,NA,"American English","VSH_Exp2","2016_Mar_24_1419",NA
"Recordings/sasi.wav","no","s","s","a","no","i","sasi","Training","alveolar","TrainingItems",1,39,139,54,NA,NA,NA,NA,NA,NA,NA,NA,NA,NA,126,FALSE,19,61.1662452131,NA,"American English","VSH_Exp2","2016_Mar_24_1419",NA
"Recordings/biba.wav","yes","b","b","i","yes","a","biba","Training","bilabial","TrainingItems",1,40,140,46,NA,NA,NA,NA,NA,NA,NA,NA,NA,NA,126,FALSE,19,61.1662452131,NA,"American English","VSH_Exp2","2016_Mar_24_1419",NA
"Recordings/fufa.wav","no","f","f","u","no","a","fufa","Training","bilabial","TrainingItems",1,41,141,87,NA,NA,NA,NA,NA,NA,NA,NA,NA,NA,126,FALSE,19,61.1662452131,NA,"American English","VSH_Exp2","2016_Mar_24_1419",NA
"Recordings/diba.wav","yes","d","b","i","yes","a","diba","Training","alveolar","TrainingItems",1,42,142,39,NA,NA,NA,NA,NA,NA,NA,NA,NA,NA,126,FALSE,19,61.1662452131,NA,"American English","VSH_Exp2","2016_Mar_24_1419",NA
"Recordings/pipi.wav","no","p","p","i","yes","i","pipi","Training","bilabial","TrainingItems",1,43,143,30,NA,NA,NA,NA,NA,NA,NA,NA,NA,NA,126,FALSE,19,61.1662452131,NA,"American English","VSH_Exp2","2016_Mar_24_1419",NA
"Recordings/zuva.wav","yes","z","v","u","no","a","zuva","Training","alveolar","TrainingItems",1,44,144,6,NA,NA,NA,NA,NA,NA,NA,NA,NA,NA,126,FALSE,19,61.1662452131,NA,"American English","VSH_Exp2","2016_Mar_24_1419",NA
"Recordings/fisu.wav","no","f","s","i","no","u","fisu","Training","bilabial","TrainingItems",1,45,145,16,NA,NA,NA,NA,NA,NA,NA,NA,NA,NA,126,FALSE,19,61.1662452131,NA,"American English","VSH_Exp2","2016_Mar_24_1419",NA
"Recordings/didu.wav","yes","d","d","i","yes","u","didu","Training","alveolar","TrainingItems",1,46,146,17,NA,NA,NA,NA,NA,NA,NA,NA,NA,NA,126,FALSE,19,61.1662452131,NA,"American English","VSH_Exp2","2016_Mar_24_1419",NA
"Recordings/zizu.wav","yes","z","z","i","no","u","zizu","Training","alveolar","TrainingItems",1,47,147,13,NA,NA,NA,NA,NA,NA,NA,NA,NA,NA,126,FALSE,19,61.1662452131,NA,"American English","VSH_Exp2","2016_Mar_24_1419",NA
"Recordings/vuva.wav","yes","v","v","u","no","a","vuva","Training","bilabial","TrainingItems",1,48,148,7,NA,NA,NA,NA,NA,NA,NA,NA,NA,NA,126,FALSE,19,61.1662452131,NA,"American English","VSH_Exp2","2016_Mar_24_1419",NA
"Recordings/sisu.wav","no","s","s","i","no","u","sisu","Training","alveolar","TrainingItems",1,49,149,40,NA,NA,NA,NA,NA,NA,NA,NA,NA,NA,126,FALSE,19,61.1662452131,NA,"American English","VSH_Exp2","2016_Mar_24_1419",NA
"Recordings/dada.wav","yes","d","d","a","yes","a","dada","Training","alveolar","TrainingItems",1,50,150,24,NA,NA,NA,NA,NA,NA,NA,NA,NA,NA,126,FALSE,19,61.1662452131,NA,"American English","VSH_Exp2","2016_Mar_24_1419",NA
"Recordings/fafi.wav","no","f","f","a","no","i","fafi","Training","bilabial","TrainingItems",1,51,151,18,NA,NA,NA,NA,NA,NA,NA,NA,NA,NA,126,FALSE,19,61.1662452131,NA,"American English","VSH_Exp2","2016_Mar_24_1419",NA
"Recordings/titi.wav","no","t","t","i","yes","i","titi","Training","alveolar","TrainingItems",1,52,152,48,NA,NA,NA,NA,NA,NA,NA,NA,NA,NA,126,FALSE,19,61.1662452131,NA,"American English","VSH_Exp2","2016_Mar_24_1419",NA
"Recordings/pupu.wav","no","p","p","u","yes","u","pupu","Training","bilabial","TrainingItems",1,53,153,71,NA,NA,NA,NA,NA,NA,NA,NA,NA,NA,126,FALSE,19,61.1662452131,NA,"American English","VSH_Exp2","2016_Mar_24_1419",NA
"Recordings/dubi.wav","yes","d","b","u","yes","i","dubi","Training","alveolar","TrainingItems",1,54,154,41,NA,NA,NA,NA,NA,NA,NA,NA,NA,NA,126,FALSE,19,61.1662452131,NA,"American English","VSH_Exp2","2016_Mar_24_1419",NA
"Recordings/vava.wav","yes","v","v","a","no","a","vava","Training","bilabial","TrainingItems",1,55,155,75,NA,NA,NA,NA,NA,NA,NA,NA,NA,NA,126,FALSE,19,61.1662452131,NA,"American English","VSH_Exp2","2016_Mar_24_1419",NA
"Recordings/fifi.wav","no","f","f","i","no","i","fifi","Training","bilabial","TrainingItems",1,56,156,45,NA,NA,NA,NA,NA,NA,NA,NA,NA,NA,126,FALSE,19,61.1662452131,NA,"American English","VSH_Exp2","2016_Mar_24_1419",NA
"Recordings/bidu.wav","yes","b","d","i","yes","u","bidu","Training","bilabial","TrainingItems",1,57,157,58,NA,NA,NA,NA,NA,NA,NA,NA,NA,NA,126,FALSE,19,61.1662452131,NA,"American English","VSH_Exp2","2016_Mar_24_1419",NA
"Recordings/dadu.wav","yes","d","d","a","yes","u","dadu","Training","alveolar","TrainingItems",1,58,158,98,NA,NA,NA,NA,NA,NA,NA,NA,NA,NA,126,FALSE,19,61.1662452131,NA,"American English","VSH_Exp2","2016_Mar_24_1419",NA
"Recordings/daba.wav","yes","d","b","a","yes","a","daba","Training","alveolar","TrainingItems",1,59,159,59,NA,NA,NA,NA,NA,NA,NA,NA,NA,NA,126,FALSE,19,61.1662452131,NA,"American English","VSH_Exp2","2016_Mar_24_1419",NA
"Recordings/sisa.wav","no","s","s","i","no","a","sisa","Training","alveolar","TrainingItems",1,60,160,69,NA,NA,NA,NA,NA,NA,NA,NA,NA,NA,126,FALSE,19,61.1662452131,NA,"American English","VSH_Exp2","2016_Mar_24_1419",NA
"Recordings/pupi.wav","no","p","p","u","yes","i","pupi","Training","bilabial","TrainingItems",1,61,161,50,NA,NA,NA,NA,NA,NA,NA,NA,NA,NA,126,FALSE,19,61.1662452131,NA,"American English","VSH_Exp2","2016_Mar_24_1419",NA
"Recordings/dibi.wav","yes","d","b","i","yes","i","dibi","Training","alveolar","TrainingItems",1,62,162,96,NA,NA,NA,NA,NA,NA,NA,NA,NA,NA,126,FALSE,19,61.1662452131,NA,"American English","VSH_Exp2","2016_Mar_24_1419",NA
"Recordings/babu.wav","yes","b","b","a","yes","u","babu","Training","bilabial","TrainingItems",1,63,163,3,NA,NA,NA,NA,NA,NA,NA,NA,NA,NA,126,FALSE,19,61.1662452131,NA,"American English","VSH_Exp2","2016_Mar_24_1419",NA
"Recordings/sufu.wav","no","s","f","u","no","u","sufu","Training","alveolar","TrainingItems",1,64,164,51,NA,NA,NA,NA,NA,NA,NA,NA,NA,NA,126,FALSE,19,61.1662452131,NA,"American English","VSH_Exp2","2016_Mar_24_1419",NA
"Recordings/fufu.wav","no","f","f","u","no","u","fufu","Training","bilabial","TrainingItems",1,65,165,63,NA,NA,NA,NA,NA,NA,NA,NA,NA,NA,126,FALSE,19,61.1662452131,NA,"American English","VSH_Exp2","2016_Mar_24_1419",NA
"Recordings/zaza.wav","yes","z","z","a","no","a","zaza","Training","alveolar","TrainingItems",1,66,166,97,NA,NA,NA,NA,NA,NA,NA,NA,NA,NA,126,FALSE,19,61.1662452131,NA,"American English","VSH_Exp2","2016_Mar_24_1419",NA
"Recordings/papu.wav","no","p","p","a","yes","u","papu","Training","bilabial","TrainingItems",1,67,167,57,NA,NA,NA,NA,NA,NA,NA,NA,NA,NA,126,FALSE,19,61.1662452131,NA,"American English","VSH_Exp2","2016_Mar_24_1419",NA
"Recordings/zavu.wav","yes","z","v","a","no","u","zavu","Training","alveolar","TrainingItems",1,68,168,15,NA,NA,NA,NA,NA,NA,NA,NA,NA,NA,126,FALSE,19,61.1662452131,NA,"American English","VSH_Exp2","2016_Mar_24_1419",NA
"Recordings/ziva.wav","yes","z","v","i","no","a","ziva","Training","alveolar","TrainingItems",1,69,169,53,NA,NA,NA,NA,NA,NA,NA,NA,NA,NA,126,FALSE,19,61.1662452131,NA,"American English","VSH_Exp2","2016_Mar_24_1419",NA
"Recordings/vivu.wav","yes","v","v","i","no","u","vivu","Training","bilabial","TrainingItems",1,70,170,23,NA,NA,NA,NA,NA,NA,NA,NA,NA,NA,126,FALSE,19,61.1662452131,NA,"American English","VSH_Exp2","2016_Mar_24_1419",NA
"Recordings/safa.wav","no","s","f","a","no","a","safa","Training","alveolar","TrainingItems",1,71,171,29,NA,NA,NA,NA,NA,NA,NA,NA,NA,NA,126,FALSE,19,61.1662452131,NA,"American English","VSH_Exp2","2016_Mar_24_1419",NA
"Recordings/dida.wav","yes","d","d","i","yes","a","dida","Training","alveolar","TrainingItems",1,72,172,43,NA,NA,NA,NA,NA,NA,NA,NA,NA,NA,126,FALSE,19,61.1662452131,NA,"American English","VSH_Exp2","2016_Mar_24_1419",NA
"Recordings/buba.wav","yes","b","b","u","yes","a","buba","Training","bilabial","TrainingItems",1,73,173,9,NA,NA,NA,NA,NA,NA,NA,NA,NA,NA,126,FALSE,19,61.1662452131,NA,"American English","VSH_Exp2","2016_Mar_24_1419",NA
"Recordings/bida.wav","yes","b","d","i","yes","a","bida","Training","bilabial","TrainingItems",1,74,174,86,NA,NA,NA,NA,NA,NA,NA,NA,NA,NA,126,FALSE,19,61.1662452131,NA,"American English","VSH_Exp2","2016_Mar_24_1419",NA
"Recordings/didi.wav","yes","d","d","i","yes","i","didi","Training","alveolar","TrainingItems",1,75,175,84,NA,NA,NA,NA,NA,NA,NA,NA,NA,NA,126,FALSE,19,61.1662452131,NA,"American English","VSH_Exp2","2016_Mar_24_1419",NA
"Recordings/fifa.wav","no","f","f","i","no","a","fifa","Training","bilabial","TrainingItems",1,76,176,79,NA,NA,NA,NA,NA,NA,NA,NA,NA,NA,126,FALSE,19,61.1662452131,NA,"American English","VSH_Exp2","2016_Mar_24_1419",NA
"Recordings/pipu.wav","no","p","p","i","yes","u","pipu","Training","bilabial","TrainingItems",1,77,177,74,NA,NA,NA,NA,NA,NA,NA,NA,NA,NA,126,FALSE,19,61.1662452131,NA,"American English","VSH_Exp2","2016_Mar_24_1419",NA
"Recordings/zivu.wav","yes","z","v","i","no","u","zivu","Training","alveolar","TrainingItems",1,78,178,64,NA,NA,NA,NA,NA,NA,NA,NA,NA,NA,126,FALSE,19,61.1662452131,NA,"American English","VSH_Exp2","2016_Mar_24_1419",NA
"Recordings/susu.wav","no","s","s","u","no","u","susu","Training","alveolar","TrainingItems",1,79,179,28,NA,NA,NA,NA,NA,NA,NA,NA,NA,NA,126,FALSE,19,61.1662452131,NA,"American English","VSH_Exp2","2016_Mar_24_1419",NA
"Recordings/vazu.wav","yes","v","z","a","no","u","vazu","Training","bilabial","TrainingItems",1,80,180,80,NA,NA,NA,NA,NA,NA,NA,NA,NA,NA,126,FALSE,19,61.1662452131,NA,"American English","VSH_Exp2","2016_Mar_24_1419",NA
"Recordings/vaza.wav","yes","v","z","a","no","a","vaza","Training","bilabial","TrainingItems",1,81,181,85,NA,NA,NA,NA,NA,NA,NA,NA,NA,NA,126,FALSE,19,61.1662452131,NA,"American English","VSH_Exp2","2016_Mar_24_1419",NA
"Recordings/tita.wav","no","t","t","i","yes","a","tita","Training","alveolar","TrainingItems",1,82,182,67,NA,NA,NA,NA,NA,NA,NA,NA,NA,NA,126,FALSE,19,61.1662452131,NA,"American English","VSH_Exp2","2016_Mar_24_1419",NA
"Recordings/zava.wav","yes","z","v","a","no","a","zava","Training","alveolar","TrainingItems",1,83,183,2,NA,NA,NA,NA,NA,NA,NA,NA,NA,NA,126,FALSE,19,61.1662452131,NA,"American English","VSH_Exp2","2016_Mar_24_1419",NA
"Recordings/tati.wav","no","t","t","a","yes","i","tati","Training","alveolar","TrainingItems",1,84,184,82,NA,NA,NA,NA,NA,NA,NA,NA,NA,NA,126,FALSE,19,61.1662452131,NA,"American English","VSH_Exp2","2016_Mar_24_1419",NA
"Recordings/fisa.wav","no","f","s","i","no","a","fisa","Training","bilabial","TrainingItems",1,85,185,49,NA,NA,NA,NA,NA,NA,NA,NA,NA,NA,126,FALSE,19,61.1662452131,NA,"American English","VSH_Exp2","2016_Mar_24_1419",NA
"Recordings/titu.wav","no","t","t","i","yes","u","titu","Training","alveolar","TrainingItems",1,86,186,34,NA,NA,NA,NA,NA,NA,NA,NA,NA,NA,126,FALSE,19,61.1662452131,NA,"American English","VSH_Exp2","2016_Mar_24_1419",NA
"Recordings/babi.wav","yes","b","b","a","yes","i","babi","Training","bilabial","TrainingItems",1,87,187,60,NA,NA,NA,NA,NA,NA,NA,NA,NA,NA,126,FALSE,19,61.1662452131,NA,"American English","VSH_Exp2","2016_Mar_24_1419",NA
"Recordings/fisi.wav","no","f","s","i","no","i","fisi","Training","bilabial","TrainingItems",1,88,188,66,NA,NA,NA,NA,NA,NA,NA,NA,NA,NA,126,FALSE,19,61.1662452131,NA,"American English","VSH_Exp2","2016_Mar_24_1419",NA
"Recordings/sufi.wav","no","s","f","u","no","i","sufi","Training","alveolar","TrainingItems",1,89,189,36,NA,NA,NA,NA,NA,NA,NA,NA,NA,NA,126,FALSE,19,61.1662452131,NA,"American English","VSH_Exp2","2016_Mar_24_1419",NA
"Recordings/vuzu.wav","yes","v","z","u","no","u","vuzu","Training","bilabial","TrainingItems",1,90,190,73,NA,NA,NA,NA,NA,NA,NA,NA,NA,NA,126,FALSE,19,61.1662452131,NA,"American English","VSH_Exp2","2016_Mar_24_1419",NA
"Recordings/fasa.wav","no","f","s","a","no","a","fasa","Training","bilabial","TrainingItems",1,91,191,55,NA,NA,NA,NA,NA,NA,NA,NA,NA,NA,126,FALSE,19,61.1662452131,NA,"American English","VSH_Exp2","2016_Mar_24_1419",NA
"Recordings/tata.wav","no","t","t","a","yes","a","tata","Training","alveolar","TrainingItems",1,92,192,56,NA,NA,NA,NA,NA,NA,NA,NA,NA,NA,126,FALSE,19,61.1662452131,NA,"American English","VSH_Exp2","2016_Mar_24_1419",NA
"Recordings/bibi.wav","yes","b","b","i","yes","i","bibi","Training","bilabial","TrainingItems",1,93,193,62,NA,NA,NA,NA,NA,NA,NA,NA,NA,NA,126,FALSE,19,61.1662452131,NA,"American English","VSH_Exp2","2016_Mar_24_1419",NA
"Recordings/budu.wav","yes","b","d","u","yes","u","budu","Training","bilabial","TrainingItems",1,94,194,0,NA,NA,NA,NA,NA,NA,NA,NA,NA,NA,126,FALSE,19,61.1662452131,NA,"American English","VSH_Exp2","2016_Mar_24_1419",NA
"Recordings/fifu.wav","no","f","f","i","no","u","fifu","Training","bilabial","TrainingItems",1,95,195,92,NA,NA,NA,NA,NA,NA,NA,NA,NA,NA,126,FALSE,19,61.1662452131,NA,"American English","VSH_Exp2","2016_Mar_24_1419",NA
"Recordings/sifa.wav","no","s","f","i","no","a","sifa","Training","alveolar","TrainingItems",1,96,196,19,NA,NA,NA,NA,NA,NA,NA,NA,NA,NA,126,FALSE,19,61.1662452131,NA,"American English","VSH_Exp2","2016_Mar_24_1419",NA
"Recordings/bubu.wav","yes","b","b","u","yes","u","bubu","Training","bilabial","TrainingItems",1,97,197,42,NA,NA,NA,NA,NA,NA,NA,NA,NA,NA,126,FALSE,19,61.1662452131,NA,"American English","VSH_Exp2","2016_Mar_24_1419",NA
"Recordings/zuza.wav","yes","z","z","u","no","a","zuza","Training","alveolar","TrainingItems",1,98,198,70,NA,NA,NA,NA,NA,NA,NA,NA,NA,NA,126,FALSE,19,61.1662452131,NA,"American English","VSH_Exp2","2016_Mar_24_1419",NA
"Recordings/zizi.wav","yes","z","z","i","no","i","zizi","Training","alveolar","TrainingItems",1,99,199,5,NA,NA,NA,NA,NA,NA,NA,NA,NA,NA,126,FALSE,19,61.1662452131,NA,"American English","VSH_Exp2","2016_Mar_24_1419",NA
NA,NA,NA,NA,NA,NA,NA,NA,NA,NA,NA,NA,NA,NA,NA,NA,NA,NA,NA,NA,NA,"space",12.4297099113,NA,NA,126,FALSE,19,61.1662452131,NA,"American English","VSH_Exp2","2016_Mar_24_1419",NA
"Recordings/zufa.wav","yes","z","f","u","no","a","zufa","Controls","alveolar","StopControls",NA,NA,NA,NA,0,0,0,36,NA,NA,NA,NA,"Yes",5.558,126,FALSE,19,61.1662452131,NA,"American English","VSH_Exp2","2016_Mar_24_1419",NA
"Recordings/vatu.wav","yes","v","t","a","no","u","vatu","Controls","bilabial","NoPatternControls",NA,NA,NA,NA,0,1,1,52,NA,NA,NA,NA,"No",7.078,126,FALSE,19,61.1662452131,NA,"American English","VSH_Exp2","2016_Mar_24_1419",NA
"Recordings/visi.wav","yes","v","s","i","no","i","visi","Controls","bilabial","StopControls",NA,NA,NA,NA,0,2,2,32,NA,NA,NA,NA,"Yes",3.772,126,FALSE,19,61.1662452131,NA,"American English","VSH_Exp2","2016_Mar_24_1419",NA
"Recordings/tuti.wav","no","t","t","u","yes","i","tuti","Test","alveolar","OldTestStimuli",NA,NA,NA,NA,0,3,3,6,NA,NA,NA,NA,"Yes",1.304,126,FALSE,19,61.1662452131,NA,"American English","VSH_Exp2","2016_Mar_24_1419",NA
"Recordings/pitu.wav","no","p","t","i","yes","u","pitu","Test","bilabial","NewConsTestStimuli",NA,NA,NA,NA,0,4,4,14,NA,NA,NA,NA,"Yes",1.921,126,FALSE,19,61.1662452131,NA,"American English","VSH_Exp2","2016_Mar_24_1419",NA
"Recordings/dabu.wav","yes","d","b","a","yes","u","dabu","Test","alveolar","OldTestStimuli",NA,NA,NA,NA,0,5,5,3,NA,NA,NA,NA,"Yes",1.17,126,FALSE,19,61.1662452131,NA,"American English","VSH_Exp2","2016_Mar_24_1419",NA
"Recordings/zitu.wav","yes","z","t","i","no","u","zitu","Controls","alveolar","NoPatternControls",NA,NA,NA,NA,0,6,6,55,NA,NA,NA,NA,"No",2.939,126,FALSE,19,61.1662452131,NA,"American English","VSH_Exp2","2016_Mar_24_1419",NA
"Recordings/dufi.wav","yes","d","f","u","yes","i","dufi","Controls","alveolar","NoPatternControls",NA,NA,NA,NA,0,7,7,58,NA,NA,NA,NA,"Yes",3.088,126,FALSE,19,61.1662452131,NA,"American English","VSH_Exp2","2016_Mar_24_1419",NA
"Recordings/tupu.wav","no","t","p","u","yes","u","tupu","Test","alveolar","NewConsTestStimuli",NA,NA,NA,NA,0,8,8,16,NA,NA,NA,NA,"Yes",2.889,126,FALSE,19,61.1662452131,NA,"American English","VSH_Exp2","2016_Mar_24_1419",NA
"Recordings/tutu.wav","no","t","t","u","yes","u","tutu","Test","alveolar","NewWordTestStimuli",NA,NA,NA,NA,0,9,9,27,NA,NA,NA,NA,"Yes",1.119,126,FALSE,19,61.1662452131,NA,"American English","VSH_Exp2","2016_Mar_24_1419",NA
"Recordings/pibu.wav","no","p","b","i","yes","u","pibu","Controls","bilabial","StopControls",NA,NA,NA,NA,0,10,10,34,NA,NA,NA,NA,"Yes",2.572,126,FALSE,19,61.1662452131,NA,"American English","VSH_Exp2","2016_Mar_24_1419",NA
"Recordings/dadi.wav","yes","d","d","a","yes","i","dadi","Test","alveolar","NewWordTestStimuli",NA,NA,NA,NA,0,11,11,20,NA,NA,NA,NA,"Yes",1.254,126,FALSE,19,61.1662452131,NA,"American English","VSH_Exp2","2016_Mar_24_1419",NA
"Recordings/vavi.wav","yes","v","v","a","no","i","vavi","Test","bilabial","OldTestStimuli",NA,NA,NA,NA,0,12,12,0,NA,NA,NA,NA,"Yes",1.069,126,FALSE,19,61.1662452131,NA,"American English","VSH_Exp2","2016_Mar_24_1419",NA
"Recordings/pubu.wav","no","p","b","u","yes","u","pubu","Controls","bilabial","StopControls",NA,NA,NA,NA,0,13,13,31,NA,NA,NA,NA,"No",2.206,126,FALSE,19,61.1662452131,NA,"American English","VSH_Exp2","2016_Mar_24_1419",NA
"Recordings/buzu.wav","yes","b","z","u","yes","u","buzu","Controls","bilabial","VoicingControls",NA,NA,NA,NA,0,14,14,40,NA,NA,NA,NA,"No",1.37,126,FALSE,19,61.1662452131,NA,"American English","VSH_Exp2","2016_Mar_24_1419",NA
"Recordings/zuzu.wav","yes","z","z","u","no","u","zuzu","Test","alveolar","NewWordTestStimuli",NA,NA,NA,NA,0,15,15,28,NA,NA,NA,NA,"Yes",2.204,126,FALSE,19,61.1662452131,NA,"American English","VSH_Exp2","2016_Mar_24_1419",NA
"Recordings/zuvi.wav","yes","z","v","u","no","i","zuvi","Test","alveolar","NewWordTestStimuli",NA,NA,NA,NA,0,16,16,25,NA,NA,NA,NA,"Yes",1.47,126,FALSE,19,61.1662452131,NA,"American English","VSH_Exp2","2016_Mar_24_1419",NA
"Recordings/duza.wav","yes","d","z","u","yes","a","duza","Controls","alveolar","VoicingControls",NA,NA,NA,NA,0,17,17,48,NA,NA,NA,NA,"No",2.671,126,FALSE,19,61.1662452131,NA,"American English","VSH_Exp2","2016_Mar_24_1419",NA
"Recordings/vidi.wav","yes","v","d","i","no","i","vidi","Controls","bilabial","VoicingControls",NA,NA,NA,NA,0,18,18,42,NA,NA,NA,NA,"No",2.738,126,FALSE,19,61.1662452131,NA,"American English","VSH_Exp2","2016_Mar_24_1419",NA
"Recordings/vabi.wav","yes","v","b","a","no","i","vabi","Controls","bilabial","VoicingControls",NA,NA,NA,NA,0,19,19,47,NA,NA,NA,NA,"Yes",2.338,126,FALSE,19,61.1662452131,NA,"American English","VSH_Exp2","2016_Mar_24_1419",NA
"Recordings/vaza.wav","yes","v","z","a","no","a","vaza","Test","bilabial","OldTestStimuli",NA,NA,NA,NA,0,20,20,2,NA,NA,NA,NA,"Yes",1.12,126,FALSE,19,61.1662452131,NA,"American English","VSH_Exp2","2016_Mar_24_1419",NA
"Recordings/zizi.wav","yes","z","z","i","no","i","zizi","Test","alveolar","OldTestStimuli",NA,NA,NA,NA,0,21,21,9,NA,NA,NA,NA,"Yes",1.32,126,FALSE,19,61.1662452131,NA,"American English","VSH_Exp2","2016_Mar_24_1419",NA
"Recordings/zutu.wav","yes","z","t","u","no","u","zutu","Controls","alveolar","NoPatternControls",NA,NA,NA,NA,0,22,22,56,NA,NA,NA,NA,"Yes",0.969,126,FALSE,19,61.1662452131,NA,"American English","VSH_Exp2","2016_Mar_24_1419",NA
"Recordings/vita.wav","yes","v","t","i","no","a","vita","Controls","bilabial","NoPatternControls",NA,NA,NA,NA,0,23,23,57,NA,NA,NA,NA,"No",2.421,126,FALSE,19,61.1662452131,NA,"American English","VSH_Exp2","2016_Mar_24_1419",NA
"Recordings/bivu.wav","yes","b","v","i","yes","u","bivu","Controls","bilabial","VoicingControls",NA,NA,NA,NA,0,24,24,49,NA,NA,NA,NA,"Yes",3.941,126,FALSE,19,61.1662452131,NA,"American English","VSH_Exp2","2016_Mar_24_1419",NA
"Recordings/bada.wav","yes","b","d","a","yes","a","bada","Test","bilabial","NewWordTestStimuli",NA,NA,NA,NA,0,25,25,29,NA,NA,NA,NA,"Yes",1.237,126,FALSE,19,61.1662452131,NA,"American English","VSH_Exp2","2016_Mar_24_1419",NA
"Recordings/tapi.wav","no","t","p","a","yes","i","tapi","Test","alveolar","NewConsTestStimuli",NA,NA,NA,NA,0,26,26,12,NA,NA,NA,NA,"No",1.821,126,FALSE,19,61.1662452131,NA,"American English","VSH_Exp2","2016_Mar_24_1419",NA
"Recordings/patu.wav","no","p","t","a","yes","u","patu","Test","bilabial","NewConsTestStimuli",NA,NA,NA,NA,0,27,27,10,NA,NA,NA,NA,"No",2.088,126,FALSE,19,61.1662452131,NA,"American English","VSH_Exp2","2016_Mar_24_1419",NA
"Recordings/bifi.wav","yes","b","f","i","yes","i","bifi","Controls","bilabial","NoPatternControls",NA,NA,NA,NA,0,28,28,59,NA,NA,NA,NA,"No",2.923,126,FALSE,19,61.1662452131,NA,"American English","VSH_Exp2","2016_Mar_24_1419",NA
"Recordings/pivu.wav","no","p","v","i","yes","u","pivu","Controls","bilabial","NoPatternControls",NA,NA,NA,NA,0,29,29,54,NA,NA,NA,NA,"Yes",1.904,126,FALSE,19,61.1662452131,NA,"American English","VSH_Exp2","2016_Mar_24_1419",NA
"Recordings/pipa.wav","no","p","p","i","yes","a","pipa","Test","bilabial","NewWordTestStimuli",NA,NA,NA,NA,0,30,30,21,NA,NA,NA,NA,"Yes",1.654,126,FALSE,19,61.1662452131,NA,"American English","VSH_Exp2","2016_Mar_24_1419",NA
"Recordings/pufu.wav","no","p","f","u","yes","u","pufu","Controls","bilabial","VoicingControls",NA,NA,NA,NA,0,31,31,41,NA,NA,NA,NA,"Yes",1.554,126,FALSE,19,61.1662452131,NA,"American English","VSH_Exp2","2016_Mar_24_1419",NA
"Recordings/pifu.wav","no","p","f","i","yes","u","pifu","Controls","bilabial","VoicingControls",NA,NA,NA,NA,0,32,32,44,NA,NA,NA,NA,"Yes",5.409,126,FALSE,19,61.1662452131,NA,"American English","VSH_Exp2","2016_Mar_24_1419",NA
"Recordings/zuba.wav","yes","z","b","u","no","a","zuba","Controls","alveolar","VoicingControls",NA,NA,NA,NA,0,33,33,46,NA,NA,NA,NA,"No",5.125,126,FALSE,19,61.1662452131,NA,"American English","VSH_Exp2","2016_Mar_24_1419",NA
"Recordings/tupa.wav","no","t","p","u","yes","a","tupa","Test","alveolar","NewConsTestStimuli",NA,NA,NA,NA,0,34,34,17,NA,NA,NA,NA,"Yes",2.205,126,FALSE,19,61.1662452131,NA,"American English","VSH_Exp2","2016_Mar_24_1419",NA
"Recordings/pati.wav","no","p","t","a","yes","i","pati","Test","bilabial","NewConsTestStimuli",NA,NA,NA,NA,0,35,35,13,NA,NA,NA,NA,"No",2.305,126,FALSE,19,61.1662452131,NA,"American English","VSH_Exp2","2016_Mar_24_1419",NA
"Recordings/fifu.wav","no","f","f","i","no","u","fifu","Test","bilabial","OldTestStimuli",NA,NA,NA,NA,0,36,36,5,NA,NA,NA,NA,"Yes",1.354,126,FALSE,19,61.1662452131,NA,"American English","VSH_Exp2","2016_Mar_24_1419",NA
"Recordings/bisi.wav","yes","b","s","i","yes","i","bisi","Controls","bilabial","NoPatternControls",NA,NA,NA,NA,0,37,37,53,NA,NA,NA,NA,"No",1.704,126,FALSE,19,61.1662452131,NA,"American English","VSH_Exp2","2016_Mar_24_1419",NA
"Recordings/pavu.wav","no","p","v","a","yes","u","pavu","Controls","bilabial","NoPatternControls",NA,NA,NA,NA,0,38,38,51,NA,NA,NA,NA,"Yes",1.321,126,FALSE,19,61.1662452131,NA,"American English","VSH_Exp2","2016_Mar_24_1419",NA
"Recordings/buva.wav","yes","b","v","u","yes","a","buva","Controls","bilabial","VoicingControls",NA,NA,NA,NA,0,39,39,43,NA,NA,NA,NA,"No",4.09,126,FALSE,19,61.1662452131,NA,"American English","VSH_Exp2","2016_Mar_24_1419",NA
"Recordings/tapa.wav","no","t","p","a","yes","a","tapa","Test","alveolar","NewConsTestStimuli",NA,NA,NA,NA,0,40,40,15,NA,NA,NA,NA,"No",2.122,126,FALSE,19,61.1662452131,NA,"American English","VSH_Exp2","2016_Mar_24_1419",NA
"Recordings/vuvu.wav","yes","v","v","u","no","u","vuvu","Test","bilabial","NewWordTestStimuli",NA,NA,NA,NA,0,41,41,26,NA,NA,NA,NA,"Yes",0.97,126,FALSE,19,61.1662452131,NA,"American English","VSH_Exp2","2016_Mar_24_1419",NA
"Recordings/puta.wav","no","p","t","u","yes","a","puta","Test","bilabial","NewConsTestStimuli",NA,NA,NA,NA,0,42,42,11,NA,NA,NA,NA,"Yes",1.571,126,FALSE,19,61.1662452131,NA,"American English","VSH_Exp2","2016_Mar_24_1419",NA
"Recordings/pata.wav","no","p","t","a","yes","a","pata","Test","bilabial","NewConsTestStimuli",NA,NA,NA,NA,0,43,43,19,NA,NA,NA,NA,"Yes",0.869,126,FALSE,19,61.1662452131,NA,"American English","VSH_Exp2","2016_Mar_24_1419",NA
"Recordings/bipu.wav","yes","b","p","i","yes","u","bipu","Controls","bilabial","StopControls",NA,NA,NA,NA,0,44,44,39,NA,NA,NA,NA,"Yes",1.186,126,FALSE,19,61.1662452131,NA,"American English","VSH_Exp2","2016_Mar_24_1419",NA
"Recordings/tipa.wav","no","t","p","i","yes","a","tipa","Test","alveolar","NewConsTestStimuli",NA,NA,NA,NA,0,45,45,18,NA,NA,NA,NA,"Yes",1.152,126,FALSE,19,61.1662452131,NA,"American English","VSH_Exp2","2016_Mar_24_1419",NA
"Recordings/zisa.wav","yes","z","s","i","no","a","zisa","Controls","alveolar","StopControls",NA,NA,NA,NA,0,46,46,35,NA,NA,NA,NA,"No",2.305,126,FALSE,19,61.1662452131,NA,"American English","VSH_Exp2","2016_Mar_24_1419",NA
"Recordings/zida.wav","yes","z","d","i","no","a","zida","Controls","alveolar","VoicingControls",NA,NA,NA,NA,0,47,47,45,NA,NA,NA,NA,"Yes",2.305,126,FALSE,19,61.1662452131,NA,"American English","VSH_Exp2","2016_Mar_24_1419",NA
"Recordings/butu.wav","yes","b","t","u","yes","u","butu","Controls","bilabial","StopControls",NA,NA,NA,NA,0,48,48,30,NA,NA,NA,NA,"No",2.389,126,FALSE,19,61.1662452131,NA,"American English","VSH_Exp2","2016_Mar_24_1419",NA
"Recordings/bupa.wav","yes","b","p","u","yes","a","bupa","Controls","bilabial","StopControls",NA,NA,NA,NA,0,49,49,33,NA,NA,NA,NA,"Yes",1.153,126,FALSE,19,61.1662452131,NA,"American English","VSH_Exp2","2016_Mar_24_1419",NA
"Recordings/vuza.wav","yes","v","z","u","no","a","vuza","Test","bilabial","NewWordTestStimuli",NA,NA,NA,NA,0,50,50,22,NA,NA,NA,NA,"Yes",1.269,126,FALSE,19,61.1662452131,NA,"American English","VSH_Exp2","2016_Mar_24_1419",NA
"Recordings/dida.wav","yes","d","d","i","yes","a","dida","Test","alveolar","OldTestStimuli",NA,NA,NA,NA,0,51,51,1,NA,NA,NA,NA,"Yes",1.036,126,FALSE,19,61.1662452131,NA,"American English","VSH_Exp2","2016_Mar_24_1419",NA
"Recordings/duda.wav","yes","d","d","u","yes","a","duda","Test","alveolar","OldTestStimuli",NA,NA,NA,NA,0,52,52,7,NA,NA,NA,NA,"Yes",1.036,126,FALSE,19,61.1662452131,NA,"American English","VSH_Exp2","2016_Mar_24_1419",NA
"Recordings/badi.wav","yes","b","d","a","yes","i","badi","Test","bilabial","NewWordTestStimuli",NA,NA,NA,NA,0,53,53,23,NA,NA,NA,NA,"No",4.656,126,FALSE,19,61.1662452131,NA,"American English","VSH_Exp2","2016_Mar_24_1419",NA
"Recordings/duta.wav","yes","d","t","u","yes","a","duta","Controls","alveolar","StopControls",NA,NA,NA,NA,0,54,54,38,NA,NA,NA,NA,"No",2.138,126,FALSE,19,61.1662452131,NA,"American English","VSH_Exp2","2016_Mar_24_1419",NA
"Recordings/bufa.wav","yes","b","f","u","yes","a","bufa","Controls","bilabial","NoPatternControls",NA,NA,NA,NA,0,55,55,50,NA,NA,NA,NA,"Yes",1.654,126,FALSE,19,61.1662452131,NA,"American English","VSH_Exp2","2016_Mar_24_1419",NA
"Recordings/vafi.wav","yes","v","f","a","no","i","vafi","Controls","bilabial","StopControls",NA,NA,NA,NA,0,56,56,37,NA,NA,NA,NA,"Yes",1.854,126,FALSE,19,61.1662452131,NA,"American English","VSH_Exp2","2016_Mar_24_1419",NA
"Recordings/fafi.wav","no","f","f","a","no","i","fafi","Test","bilabial","OldTestStimuli",NA,NA,NA,NA,0,57,57,8,NA,NA,NA,NA,"Yes",1.086,126,FALSE,19,61.1662452131,NA,"American English","VSH_Exp2","2016_Mar_24_1419",NA
"Recordings/dibu.wav","yes","d","b","i","yes","u","dibu","Test","alveolar","OldTestStimuli",NA,NA,NA,NA,0,58,58,4,NA,NA,NA,NA,"Yes",1.154,126,FALSE,19,61.1662452131,NA,"American English","VSH_Exp2","2016_Mar_24_1419",NA
"Recordings/fusu.wav","no","f","s","u","no","u","fusu","Test","bilabial","NewWordTestStimuli",NA,NA,NA,NA,0,59,59,24,NA,NA,NA,NA,"Yes",0.853,126,FALSE,19,61.1662452131,NA,"American English","VSH_Exp2","2016_Mar_24_1419",NA
