"SOUND","VOICING","SEGMENT","SEGMENT3","SEGMENT2","STOP","SEGMENT4","STIMULUS","GENERAL_TYPE","PLACE","TYPE","trials.thisRepN","trials.thisTrialN","trials.thisN","trials.thisIndex","trials_2.thisRepN","trials_2.thisTrialN","trials_2.thisN","trials_2.thisIndex","SpaceBar.keys","SpaceBar.rt","key_resp_2.keys","key_resp_2.rt","rating.response","rating.rt","participant","Gender","Age","frameRate","OtherLanguages","NativeLanguage","expName","date","X34"
NA,NA,NA,NA,NA,NA,NA,NA,NA,NA,NA,NA,NA,NA,NA,NA,NA,NA,NA,"space",1.45274186134,NA,NA,NA,NA,127,FALSE,21,59.9732041872,"French, Japanese","American English","VSH_Exp2","2016_Mar_24_1419",NA
"Recordings/tipa.wav","no","t","p","i","yes","a","tipa","Training","alveolar","TrainingItems",0,0,0,39,NA,NA,NA,NA,NA,NA,NA,NA,NA,NA,127,FALSE,21,59.9732041872,"French, Japanese","American English","VSH_Exp2","2016_Mar_24_1419",NA
"Recordings/sasi.wav","no","s","s","a","no","i","sasi","Training","alveolar","TrainingItems",0,1,1,14,NA,NA,NA,NA,NA,NA,NA,NA,NA,NA,127,FALSE,21,59.9732041872,"French, Japanese","American English","VSH_Exp2","2016_Mar_24_1419",NA
"Recordings/tuti.wav","no","t","t","u","yes","i","tuti","Training","alveolar","TrainingItems",0,2,2,41,NA,NA,NA,NA,NA,NA,NA,NA,NA,NA,127,FALSE,21,59.9732041872,"French, Japanese","American English","VSH_Exp2","2016_Mar_24_1419",NA
"Recordings/vuvu.wav","yes","v","v","u","no","u","vuvu","Training","bilabial","TrainingItems",0,3,3,23,NA,NA,NA,NA,NA,NA,NA,NA,NA,NA,127,FALSE,21,59.9732041872,"French, Japanese","American English","VSH_Exp2","2016_Mar_24_1419",NA
"Recordings/bidu.wav","yes","b","d","i","yes","u","bidu","Training","bilabial","TrainingItems",0,4,4,61,NA,NA,NA,NA,NA,NA,NA,NA,NA,NA,127,FALSE,21,59.9732041872,"French, Japanese","American English","VSH_Exp2","2016_Mar_24_1419",NA
"Recordings/tapi.wav","no","t","p","a","yes","i","tapi","Training","alveolar","TrainingItems",0,5,5,38,NA,NA,NA,NA,NA,NA,NA,NA,NA,NA,127,FALSE,21,59.9732041872,"French, Japanese","American English","VSH_Exp2","2016_Mar_24_1419",NA
"Recordings/dabu.wav","yes","d","b","a","yes","u","dabu","Training","alveolar","TrainingItems",0,6,6,21,NA,NA,NA,NA,NA,NA,NA,NA,NA,NA,127,FALSE,21,59.9732041872,"French, Japanese","American English","VSH_Exp2","2016_Mar_24_1419",NA
"Recordings/fafi.wav","no","f","f","a","no","i","fafi","Training","bilabial","TrainingItems",0,7,7,53,NA,NA,NA,NA,NA,NA,NA,NA,NA,NA,127,FALSE,21,59.9732041872,"French, Japanese","American English","VSH_Exp2","2016_Mar_24_1419",NA
"Recordings/daba.wav","yes","d","b","a","yes","a","daba","Training","alveolar","TrainingItems",0,8,8,96,NA,NA,NA,NA,NA,NA,NA,NA,NA,NA,127,FALSE,21,59.9732041872,"French, Japanese","American English","VSH_Exp2","2016_Mar_24_1419",NA
"Recordings/dibi.wav","yes","d","b","i","yes","i","dibi","Training","alveolar","TrainingItems",0,9,9,32,NA,NA,NA,NA,NA,NA,NA,NA,NA,NA,127,FALSE,21,59.9732041872,"French, Japanese","American English","VSH_Exp2","2016_Mar_24_1419",NA
"Recordings/pupi.wav","no","p","p","u","yes","i","pupi","Training","bilabial","TrainingItems",0,10,10,27,NA,NA,NA,NA,NA,NA,NA,NA,NA,NA,127,FALSE,21,59.9732041872,"French, Japanese","American English","VSH_Exp2","2016_Mar_24_1419",NA
"Recordings/bibi.wav","yes","b","b","i","yes","i","bibi","Training","bilabial","TrainingItems",0,11,11,15,NA,NA,NA,NA,NA,NA,NA,NA,NA,NA,127,FALSE,21,59.9732041872,"French, Japanese","American English","VSH_Exp2","2016_Mar_24_1419",NA
"Recordings/pipi.wav","no","p","p","i","yes","i","pipi","Training","bilabial","TrainingItems",0,12,12,92,NA,NA,NA,NA,NA,NA,NA,NA,NA,NA,127,FALSE,21,59.9732041872,"French, Japanese","American English","VSH_Exp2","2016_Mar_24_1419",NA
"Recordings/papi.wav","no","p","p","a","yes","i","papi","Training","bilabial","TrainingItems",0,13,13,64,NA,NA,NA,NA,NA,NA,NA,NA,NA,NA,127,FALSE,21,59.9732041872,"French, Japanese","American English","VSH_Exp2","2016_Mar_24_1419",NA
"Recordings/sifi.wav","no","s","f","i","no","i","sifi","Training","alveolar","TrainingItems",0,14,14,85,NA,NA,NA,NA,NA,NA,NA,NA,NA,NA,127,FALSE,21,59.9732041872,"French, Japanese","American English","VSH_Exp2","2016_Mar_24_1419",NA
"Recordings/dabi.wav","yes","d","b","a","yes","i","dabi","Training","alveolar","TrainingItems",0,15,15,75,NA,NA,NA,NA,NA,NA,NA,NA,NA,NA,127,FALSE,21,59.9732041872,"French, Japanese","American English","VSH_Exp2","2016_Mar_24_1419",NA
"Recordings/sufu.wav","no","s","f","u","no","u","sufu","Training","alveolar","TrainingItems",0,16,16,89,NA,NA,NA,NA,NA,NA,NA,NA,NA,NA,127,FALSE,21,59.9732041872,"French, Japanese","American English","VSH_Exp2","2016_Mar_24_1419",NA
"Recordings/fifu.wav","no","f","f","i","no","u","fifu","Training","bilabial","TrainingItems",0,17,17,7,NA,NA,NA,NA,NA,NA,NA,NA,NA,NA,127,FALSE,21,59.9732041872,"French, Japanese","American English","VSH_Exp2","2016_Mar_24_1419",NA
"Recordings/sifa.wav","no","s","f","i","no","a","sifa","Training","alveolar","TrainingItems",0,18,18,91,NA,NA,NA,NA,NA,NA,NA,NA,NA,NA,127,FALSE,21,59.9732041872,"French, Japanese","American English","VSH_Exp2","2016_Mar_24_1419",NA
"Recordings/tata.wav","no","t","t","a","yes","a","tata","Training","alveolar","TrainingItems",0,19,19,48,NA,NA,NA,NA,NA,NA,NA,NA,NA,NA,127,FALSE,21,59.9732041872,"French, Japanese","American English","VSH_Exp2","2016_Mar_24_1419",NA
"Recordings/dubi.wav","yes","d","b","u","yes","i","dubi","Training","alveolar","TrainingItems",0,20,20,33,NA,NA,NA,NA,NA,NA,NA,NA,NA,NA,127,FALSE,21,59.9732041872,"French, Japanese","American English","VSH_Exp2","2016_Mar_24_1419",NA
"Recordings/susi.wav","no","s","s","u","no","i","susi","Training","alveolar","TrainingItems",0,21,21,95,NA,NA,NA,NA,NA,NA,NA,NA,NA,NA,127,FALSE,21,59.9732041872,"French, Japanese","American English","VSH_Exp2","2016_Mar_24_1419",NA
"Recordings/pitu.wav","no","p","t","i","yes","u","pitu","Training","bilabial","TrainingItems",0,22,22,35,NA,NA,NA,NA,NA,NA,NA,NA,NA,NA,127,FALSE,21,59.9732041872,"French, Japanese","American English","VSH_Exp2","2016_Mar_24_1419",NA
"Recordings/vivu.wav","yes","v","v","i","no","u","vivu","Training","bilabial","TrainingItems",0,23,23,37,NA,NA,NA,NA,NA,NA,NA,NA,NA,NA,127,FALSE,21,59.9732041872,"French, Japanese","American English","VSH_Exp2","2016_Mar_24_1419",NA
"Recordings/fasu.wav","no","f","s","a","no","u","fasu","Training","bilabial","TrainingItems",0,24,24,49,NA,NA,NA,NA,NA,NA,NA,NA,NA,NA,127,FALSE,21,59.9732041872,"French, Japanese","American English","VSH_Exp2","2016_Mar_24_1419",NA
"Recordings/vuva.wav","yes","v","v","u","no","a","vuva","Training","bilabial","TrainingItems",0,25,25,83,NA,NA,NA,NA,NA,NA,NA,NA,NA,NA,127,FALSE,21,59.9732041872,"French, Japanese","American English","VSH_Exp2","2016_Mar_24_1419",NA
"Recordings/puti.wav","no","p","t","u","yes","i","puti","Training","bilabial","TrainingItems",0,26,26,69,NA,NA,NA,NA,NA,NA,NA,NA,NA,NA,127,FALSE,21,59.9732041872,"French, Japanese","American English","VSH_Exp2","2016_Mar_24_1419",NA
"Recordings/vuvi.wav","yes","v","v","u","no","i","vuvi","Training","bilabial","TrainingItems",0,27,27,62,NA,NA,NA,NA,NA,NA,NA,NA,NA,NA,127,FALSE,21,59.9732041872,"French, Japanese","American English","VSH_Exp2","2016_Mar_24_1419",NA
"Recordings/duda.wav","yes","d","d","u","yes","a","duda","Training","alveolar","TrainingItems",0,28,28,44,NA,NA,NA,NA,NA,NA,NA,NA,NA,NA,127,FALSE,21,59.9732041872,"French, Japanese","American English","VSH_Exp2","2016_Mar_24_1419",NA
"Recordings/fifa.wav","no","f","f","i","no","a","fifa","Training","bilabial","TrainingItems",0,29,29,72,NA,NA,NA,NA,NA,NA,NA,NA,NA,NA,127,FALSE,21,59.9732041872,"French, Japanese","American English","VSH_Exp2","2016_Mar_24_1419",NA
"Recordings/safu.wav","no","s","f","a","no","u","safu","Training","alveolar","TrainingItems",0,30,30,42,NA,NA,NA,NA,NA,NA,NA,NA,NA,NA,127,FALSE,21,59.9732041872,"French, Japanese","American English","VSH_Exp2","2016_Mar_24_1419",NA
"Recordings/dada.wav","yes","d","d","a","yes","a","dada","Training","alveolar","TrainingItems",0,31,31,16,NA,NA,NA,NA,NA,NA,NA,NA,NA,NA,127,FALSE,21,59.9732041872,"French, Japanese","American English","VSH_Exp2","2016_Mar_24_1419",NA
"Recordings/dida.wav","yes","d","d","i","yes","a","dida","Training","alveolar","TrainingItems",0,32,32,65,NA,NA,NA,NA,NA,NA,NA,NA,NA,NA,127,FALSE,21,59.9732041872,"French, Japanese","American English","VSH_Exp2","2016_Mar_24_1419",NA
"Recordings/puta.wav","no","p","t","u","yes","a","puta","Training","bilabial","TrainingItems",0,33,33,22,NA,NA,NA,NA,NA,NA,NA,NA,NA,NA,127,FALSE,21,59.9732041872,"French, Japanese","American English","VSH_Exp2","2016_Mar_24_1419",NA
"Recordings/bubu.wav","yes","b","b","u","yes","u","bubu","Training","bilabial","TrainingItems",0,34,34,51,NA,NA,NA,NA,NA,NA,NA,NA,NA,NA,127,FALSE,21,59.9732041872,"French, Japanese","American English","VSH_Exp2","2016_Mar_24_1419",NA
"Recordings/fisa.wav","no","f","s","i","no","a","fisa","Training","bilabial","TrainingItems",0,35,35,30,NA,NA,NA,NA,NA,NA,NA,NA,NA,NA,127,FALSE,21,59.9732041872,"French, Japanese","American English","VSH_Exp2","2016_Mar_24_1419",NA
"Recordings/zazi.wav","yes","z","z","a","no","i","zazi","Training","alveolar","TrainingItems",0,36,36,82,NA,NA,NA,NA,NA,NA,NA,NA,NA,NA,127,FALSE,21,59.9732041872,"French, Japanese","American English","VSH_Exp2","2016_Mar_24_1419",NA
"Recordings/pita.wav","no","p","t","i","yes","a","pita","Training","bilabial","TrainingItems",0,37,37,40,NA,NA,NA,NA,NA,NA,NA,NA,NA,NA,127,FALSE,21,59.9732041872,"French, Japanese","American English","VSH_Exp2","2016_Mar_24_1419",NA
"Recordings/ziza.wav","yes","z","z","i","no","a","ziza","Training","alveolar","TrainingItems",0,38,38,12,NA,NA,NA,NA,NA,NA,NA,NA,NA,NA,127,FALSE,21,59.9732041872,"French, Japanese","American English","VSH_Exp2","2016_Mar_24_1419",NA
"Recordings/putu.wav","no","p","t","u","yes","u","putu","Training","bilabial","TrainingItems",0,39,39,8,NA,NA,NA,NA,NA,NA,NA,NA,NA,NA,127,FALSE,21,59.9732041872,"French, Japanese","American English","VSH_Exp2","2016_Mar_24_1419",NA
"Recordings/tipi.wav","no","t","p","i","yes","i","tipi","Training","alveolar","TrainingItems",0,40,40,9,NA,NA,NA,NA,NA,NA,NA,NA,NA,NA,127,FALSE,21,59.9732041872,"French, Japanese","American English","VSH_Exp2","2016_Mar_24_1419",NA
"Recordings/badu.wav","yes","b","d","a","yes","u","badu","Training","bilabial","TrainingItems",0,41,41,36,NA,NA,NA,NA,NA,NA,NA,NA,NA,NA,127,FALSE,21,59.9732041872,"French, Japanese","American English","VSH_Exp2","2016_Mar_24_1419",NA
"Recordings/pupa.wav","no","p","p","u","yes","a","pupa","Training","bilabial","TrainingItems",0,42,42,74,NA,NA,NA,NA,NA,NA,NA,NA,NA,NA,127,FALSE,21,59.9732041872,"French, Japanese","American English","VSH_Exp2","2016_Mar_24_1419",NA
"Recordings/tuta.wav","no","t","t","u","yes","a","tuta","Training","alveolar","TrainingItems",0,43,43,19,NA,NA,NA,NA,NA,NA,NA,NA,NA,NA,127,FALSE,21,59.9732041872,"French, Japanese","American English","VSH_Exp2","2016_Mar_24_1419",NA
"Recordings/susa.wav","no","s","s","u","no","a","susa","Training","alveolar","TrainingItems",0,44,44,86,NA,NA,NA,NA,NA,NA,NA,NA,NA,NA,127,FALSE,21,59.9732041872,"French, Japanese","American English","VSH_Exp2","2016_Mar_24_1419",NA
"Recordings/safa.wav","no","s","f","a","no","a","safa","Training","alveolar","TrainingItems",0,45,45,24,NA,NA,NA,NA,NA,NA,NA,NA,NA,NA,127,FALSE,21,59.9732041872,"French, Japanese","American English","VSH_Exp2","2016_Mar_24_1419",NA
"Recordings/didi.wav","yes","d","d","i","yes","i","didi","Training","alveolar","TrainingItems",0,46,46,56,NA,NA,NA,NA,NA,NA,NA,NA,NA,NA,127,FALSE,21,59.9732041872,"French, Japanese","American English","VSH_Exp2","2016_Mar_24_1419",NA
"Recordings/titi.wav","no","t","t","i","yes","i","titi","Training","alveolar","TrainingItems",0,47,47,28,NA,NA,NA,NA,NA,NA,NA,NA,NA,NA,127,FALSE,21,59.9732041872,"French, Japanese","American English","VSH_Exp2","2016_Mar_24_1419",NA
"Recordings/vava.wav","yes","v","v","a","no","a","vava","Training","bilabial","TrainingItems",0,48,48,13,NA,NA,NA,NA,NA,NA,NA,NA,NA,NA,127,FALSE,21,59.9732041872,"French, Japanese","American English","VSH_Exp2","2016_Mar_24_1419",NA
"Recordings/sufa.wav","no","s","f","u","no","a","sufa","Training","alveolar","TrainingItems",0,49,49,1,NA,NA,NA,NA,NA,NA,NA,NA,NA,NA,127,FALSE,21,59.9732041872,"French, Japanese","American English","VSH_Exp2","2016_Mar_24_1419",NA
"Recordings/tutu.wav","no","t","t","u","yes","u","tutu","Training","alveolar","TrainingItems",0,50,50,80,NA,NA,NA,NA,NA,NA,NA,NA,NA,NA,127,FALSE,21,59.9732041872,"French, Japanese","American English","VSH_Exp2","2016_Mar_24_1419",NA
"Recordings/sisa.wav","no","s","s","i","no","a","sisa","Training","alveolar","TrainingItems",0,51,51,54,NA,NA,NA,NA,NA,NA,NA,NA,NA,NA,127,FALSE,21,59.9732041872,"French, Japanese","American English","VSH_Exp2","2016_Mar_24_1419",NA
"Recordings/dubu.wav","yes","d","b","u","yes","u","dubu","Training","alveolar","TrainingItems",0,52,52,31,NA,NA,NA,NA,NA,NA,NA,NA,NA,NA,127,FALSE,21,59.9732041872,"French, Japanese","American English","VSH_Exp2","2016_Mar_24_1419",NA
"Recordings/fasi.wav","no","f","s","a","no","i","fasi","Training","bilabial","TrainingItems",0,53,53,6,NA,NA,NA,NA,NA,NA,NA,NA,NA,NA,127,FALSE,21,59.9732041872,"French, Japanese","American English","VSH_Exp2","2016_Mar_24_1419",NA
"Recordings/zizu.wav","yes","z","z","i","no","u","zizu","Training","alveolar","TrainingItems",0,54,54,2,NA,NA,NA,NA,NA,NA,NA,NA,NA,NA,127,FALSE,21,59.9732041872,"French, Japanese","American English","VSH_Exp2","2016_Mar_24_1419",NA
"Recordings/zaza.wav","yes","z","z","a","no","a","zaza","Training","alveolar","TrainingItems",0,55,55,84,NA,NA,NA,NA,NA,NA,NA,NA,NA,NA,127,FALSE,21,59.9732041872,"French, Japanese","American English","VSH_Exp2","2016_Mar_24_1419",NA
"Recordings/fisu.wav","no","f","s","i","no","u","fisu","Training","bilabial","TrainingItems",0,56,56,58,NA,NA,NA,NA,NA,NA,NA,NA,NA,NA,127,FALSE,21,59.9732041872,"French, Japanese","American English","VSH_Exp2","2016_Mar_24_1419",NA
"Recordings/pati.wav","no","p","t","a","yes","i","pati","Training","bilabial","TrainingItems",0,57,57,63,NA,NA,NA,NA,NA,NA,NA,NA,NA,NA,127,FALSE,21,59.9732041872,"French, Japanese","American English","VSH_Exp2","2016_Mar_24_1419",NA
"Recordings/sisu.wav","no","s","s","i","no","u","sisu","Training","alveolar","TrainingItems",0,58,58,78,NA,NA,NA,NA,NA,NA,NA,NA,NA,NA,127,FALSE,21,59.9732041872,"French, Japanese","American English","VSH_Exp2","2016_Mar_24_1419",NA
"Recordings/baba.wav","yes","b","b","a","yes","a","baba","Training","bilabial","TrainingItems",0,59,59,99,NA,NA,NA,NA,NA,NA,NA,NA,NA,NA,127,FALSE,21,59.9732041872,"French, Japanese","American English","VSH_Exp2","2016_Mar_24_1419",NA
"Recordings/zuza.wav","yes","z","z","u","no","a","zuza","Training","alveolar","TrainingItems",0,60,60,67,NA,NA,NA,NA,NA,NA,NA,NA,NA,NA,127,FALSE,21,59.9732041872,"French, Japanese","American English","VSH_Exp2","2016_Mar_24_1419",NA
"Recordings/budu.wav","yes","b","d","u","yes","u","budu","Training","bilabial","TrainingItems",0,61,61,79,NA,NA,NA,NA,NA,NA,NA,NA,NA,NA,127,FALSE,21,59.9732041872,"French, Japanese","American English","VSH_Exp2","2016_Mar_24_1419",NA
"Recordings/fusu.wav","no","f","s","u","no","u","fusu","Training","bilabial","TrainingItems",0,62,62,43,NA,NA,NA,NA,NA,NA,NA,NA,NA,NA,127,FALSE,21,59.9732041872,"French, Japanese","American English","VSH_Exp2","2016_Mar_24_1419",NA
"Recordings/zizi.wav","yes","z","z","i","no","i","zizi","Training","alveolar","TrainingItems",0,63,63,60,NA,NA,NA,NA,NA,NA,NA,NA,NA,NA,127,FALSE,21,59.9732041872,"French, Japanese","American English","VSH_Exp2","2016_Mar_24_1419",NA
"Recordings/titu.wav","no","t","t","i","yes","u","titu","Training","alveolar","TrainingItems",0,64,64,77,NA,NA,NA,NA,NA,NA,NA,NA,NA,NA,127,FALSE,21,59.9732041872,"French, Japanese","American English","VSH_Exp2","2016_Mar_24_1419",NA
"Recordings/didu.wav","yes","d","d","i","yes","u","didu","Training","alveolar","TrainingItems",0,65,65,55,NA,NA,NA,NA,NA,NA,NA,NA,NA,NA,127,FALSE,21,59.9732041872,"French, Japanese","American English","VSH_Exp2","2016_Mar_24_1419",NA
"Recordings/vivi.wav","yes","v","v","i","no","i","vivi","Training","bilabial","TrainingItems",0,66,66,52,NA,NA,NA,NA,NA,NA,NA,NA,NA,NA,127,FALSE,21,59.9732041872,"French, Japanese","American English","VSH_Exp2","2016_Mar_24_1419",NA
"Recordings/buba.wav","yes","b","b","u","yes","a","buba","Training","bilabial","TrainingItems",0,67,67,98,NA,NA,NA,NA,NA,NA,NA,NA,NA,NA,127,FALSE,21,59.9732041872,"French, Japanese","American English","VSH_Exp2","2016_Mar_24_1419",NA
"Recordings/diba.wav","yes","d","b","i","yes","a","diba","Training","alveolar","TrainingItems",0,68,68,20,NA,NA,NA,NA,NA,NA,NA,NA,NA,NA,127,FALSE,21,59.9732041872,"French, Japanese","American English","VSH_Exp2","2016_Mar_24_1419",NA
"Recordings/tapu.wav","no","t","p","a","yes","u","tapu","Training","alveolar","TrainingItems",0,69,69,70,NA,NA,NA,NA,NA,NA,NA,NA,NA,NA,127,FALSE,21,59.9732041872,"French, Japanese","American English","VSH_Exp2","2016_Mar_24_1419",NA
"Recordings/pipa.wav","no","p","p","i","yes","a","pipa","Training","bilabial","TrainingItems",0,70,70,57,NA,NA,NA,NA,NA,NA,NA,NA,NA,NA,127,FALSE,21,59.9732041872,"French, Japanese","American English","VSH_Exp2","2016_Mar_24_1419",NA
"Recordings/sisi.wav","no","s","s","i","no","i","sisi","Training","alveolar","TrainingItems",0,71,71,88,NA,NA,NA,NA,NA,NA,NA,NA,NA,NA,127,FALSE,21,59.9732041872,"French, Japanese","American English","VSH_Exp2","2016_Mar_24_1419",NA
"Recordings/fusa.wav","no","f","s","u","no","a","fusa","Training","bilabial","TrainingItems",0,72,72,76,NA,NA,NA,NA,NA,NA,NA,NA,NA,NA,127,FALSE,21,59.9732041872,"French, Japanese","American English","VSH_Exp2","2016_Mar_24_1419",NA
"Recordings/fufi.wav","no","f","f","u","no","i","fufi","Training","bilabial","TrainingItems",0,73,73,90,NA,NA,NA,NA,NA,NA,NA,NA,NA,NA,127,FALSE,21,59.9732041872,"French, Japanese","American English","VSH_Exp2","2016_Mar_24_1419",NA
"Recordings/tatu.wav","no","t","t","a","yes","u","tatu","Training","alveolar","TrainingItems",0,74,74,81,NA,NA,NA,NA,NA,NA,NA,NA,NA,NA,127,FALSE,21,59.9732041872,"French, Japanese","American English","VSH_Exp2","2016_Mar_24_1419",NA
"Recordings/tita.wav","no","t","t","i","yes","a","tita","Training","alveolar","TrainingItems",0,75,75,94,NA,NA,NA,NA,NA,NA,NA,NA,NA,NA,127,FALSE,21,59.9732041872,"French, Japanese","American English","VSH_Exp2","2016_Mar_24_1419",NA
"Recordings/sifu.wav","no","s","f","i","no","u","sifu","Training","alveolar","TrainingItems",0,76,76,18,NA,NA,NA,NA,NA,NA,NA,NA,NA,NA,127,FALSE,21,59.9732041872,"French, Japanese","American English","VSH_Exp2","2016_Mar_24_1419",NA
"Recordings/dudi.wav","yes","d","d","u","yes","i","dudi","Training","alveolar","TrainingItems",0,77,77,46,NA,NA,NA,NA,NA,NA,NA,NA,NA,NA,127,FALSE,21,59.9732041872,"French, Japanese","American English","VSH_Exp2","2016_Mar_24_1419",NA
"Recordings/fifi.wav","no","f","f","i","no","i","fifi","Training","bilabial","TrainingItems",0,78,78,68,NA,NA,NA,NA,NA,NA,NA,NA,NA,NA,127,FALSE,21,59.9732041872,"French, Japanese","American English","VSH_Exp2","2016_Mar_24_1419",NA
"Recordings/budi.wav","yes","b","d","u","yes","i","budi","Training","bilabial","TrainingItems",0,79,79,93,NA,NA,NA,NA,NA,NA,NA,NA,NA,NA,127,FALSE,21,59.9732041872,"French, Japanese","American English","VSH_Exp2","2016_Mar_24_1419",NA
"Recordings/tati.wav","no","t","t","a","yes","i","tati","Training","alveolar","TrainingItems",0,80,80,26,NA,NA,NA,NA,NA,NA,NA,NA,NA,NA,127,FALSE,21,59.9732041872,"French, Japanese","American English","VSH_Exp2","2016_Mar_24_1419",NA
"Recordings/fisi.wav","no","f","s","i","no","i","fisi","Training","bilabial","TrainingItems",0,81,81,0,NA,NA,NA,NA,NA,NA,NA,NA,NA,NA,127,FALSE,21,59.9732041872,"French, Japanese","American English","VSH_Exp2","2016_Mar_24_1419",NA
"Recordings/pupu.wav","no","p","p","u","yes","u","pupu","Training","bilabial","TrainingItems",0,82,82,87,NA,NA,NA,NA,NA,NA,NA,NA,NA,NA,127,FALSE,21,59.9732041872,"French, Japanese","American English","VSH_Exp2","2016_Mar_24_1419",NA
"Recordings/sasa.wav","no","s","s","a","no","a","sasa","Training","alveolar","TrainingItems",0,83,83,59,NA,NA,NA,NA,NA,NA,NA,NA,NA,NA,127,FALSE,21,59.9732041872,"French, Japanese","American English","VSH_Exp2","2016_Mar_24_1419",NA
"Recordings/vavi.wav","yes","v","v","a","no","i","vavi","Training","bilabial","TrainingItems",0,84,84,97,NA,NA,NA,NA,NA,NA,NA,NA,NA,NA,127,FALSE,21,59.9732041872,"French, Japanese","American English","VSH_Exp2","2016_Mar_24_1419",NA
"Recordings/zazu.wav","yes","z","z","a","no","u","zazu","Training","alveolar","TrainingItems",0,85,85,47,NA,NA,NA,NA,NA,NA,NA,NA,NA,NA,127,FALSE,21,59.9732041872,"French, Japanese","American English","VSH_Exp2","2016_Mar_24_1419",NA
"Recordings/zuzi.wav","yes","z","z","u","no","i","zuzi","Training","alveolar","TrainingItems",0,86,86,17,NA,NA,NA,NA,NA,NA,NA,NA,NA,NA,127,FALSE,21,59.9732041872,"French, Japanese","American English","VSH_Exp2","2016_Mar_24_1419",NA
"Recordings/tapa.wav","no","t","p","a","yes","a","tapa","Training","alveolar","TrainingItems",0,87,87,71,NA,NA,NA,NA,NA,NA,NA,NA,NA,NA,127,FALSE,21,59.9732041872,"French, Japanese","American English","VSH_Exp2","2016_Mar_24_1419",NA
"Recordings/sasu.wav","no","s","s","a","no","u","sasu","Training","alveolar","TrainingItems",0,88,88,66,NA,NA,NA,NA,NA,NA,NA,NA,NA,NA,127,FALSE,21,59.9732041872,"French, Japanese","American English","VSH_Exp2","2016_Mar_24_1419",NA
"Recordings/safi.wav","no","s","f","a","no","i","safi","Training","alveolar","TrainingItems",0,89,89,50,NA,NA,NA,NA,NA,NA,NA,NA,NA,NA,127,FALSE,21,59.9732041872,"French, Japanese","American English","VSH_Exp2","2016_Mar_24_1419",NA
"Recordings/dadi.wav","yes","d","d","a","yes","i","dadi","Training","alveolar","TrainingItems",0,90,90,29,NA,NA,NA,NA,NA,NA,NA,NA,NA,NA,127,FALSE,21,59.9732041872,"French, Japanese","American English","VSH_Exp2","2016_Mar_24_1419",NA
"Recordings/tupu.wav","no","t","p","u","yes","u","tupu","Training","alveolar","TrainingItems",0,91,91,10,NA,NA,NA,NA,NA,NA,NA,NA,NA,NA,127,FALSE,21,59.9732041872,"French, Japanese","American English","VSH_Exp2","2016_Mar_24_1419",NA
"Recordings/biba.wav","yes","b","b","i","yes","a","biba","Training","bilabial","TrainingItems",0,92,92,25,NA,NA,NA,NA,NA,NA,NA,NA,NA,NA,127,FALSE,21,59.9732041872,"French, Japanese","American English","VSH_Exp2","2016_Mar_24_1419",NA
"Recordings/papu.wav","no","p","p","a","yes","u","papu","Training","bilabial","TrainingItems",0,93,93,4,NA,NA,NA,NA,NA,NA,NA,NA,NA,NA,127,FALSE,21,59.9732041872,"French, Japanese","American English","VSH_Exp2","2016_Mar_24_1419",NA
"Recordings/viva.wav","yes","v","v","i","no","a","viva","Training","bilabial","TrainingItems",0,94,94,73,NA,NA,NA,NA,NA,NA,NA,NA,NA,NA,127,FALSE,21,59.9732041872,"French, Japanese","American English","VSH_Exp2","2016_Mar_24_1419",NA
"Recordings/buda.wav","yes","b","d","u","yes","a","buda","Training","bilabial","TrainingItems",0,95,95,45,NA,NA,NA,NA,NA,NA,NA,NA,NA,NA,127,FALSE,21,59.9732041872,"French, Japanese","American English","VSH_Exp2","2016_Mar_24_1419",NA
"Recordings/bibu.wav","yes","b","b","i","yes","u","bibu","Training","bilabial","TrainingItems",0,96,96,34,NA,NA,NA,NA,NA,NA,NA,NA,NA,NA,127,FALSE,21,59.9732041872,"French, Japanese","American English","VSH_Exp2","2016_Mar_24_1419",NA
"Recordings/tipu.wav","no","t","p","i","yes","u","tipu","Training","alveolar","TrainingItems",0,97,97,3,NA,NA,NA,NA,NA,NA,NA,NA,NA,NA,127,FALSE,21,59.9732041872,"French, Japanese","American English","VSH_Exp2","2016_Mar_24_1419",NA
"Recordings/pata.wav","no","p","t","a","yes","a","pata","Training","bilabial","TrainingItems",0,98,98,5,NA,NA,NA,NA,NA,NA,NA,NA,NA,NA,127,FALSE,21,59.9732041872,"French, Japanese","American English","VSH_Exp2","2016_Mar_24_1419",NA
"Recordings/fufu.wav","no","f","f","u","no","u","fufu","Training","bilabial","TrainingItems",0,99,99,11,NA,NA,NA,NA,NA,NA,NA,NA,NA,NA,127,FALSE,21,59.9732041872,"French, Japanese","American English","VSH_Exp2","2016_Mar_24_1419",NA
"Recordings/fisa.wav","no","f","s","i","no","a","fisa","Training","bilabial","TrainingItems",1,0,100,30,NA,NA,NA,NA,NA,NA,NA,NA,NA,NA,127,FALSE,21,59.9732041872,"French, Japanese","American English","VSH_Exp2","2016_Mar_24_1419",NA
"Recordings/susa.wav","no","s","s","u","no","a","susa","Training","alveolar","TrainingItems",1,1,101,86,NA,NA,NA,NA,NA,NA,NA,NA,NA,NA,127,FALSE,21,59.9732041872,"French, Japanese","American English","VSH_Exp2","2016_Mar_24_1419",NA
"Recordings/safu.wav","no","s","f","a","no","u","safu","Training","alveolar","TrainingItems",1,2,102,42,NA,NA,NA,NA,NA,NA,NA,NA,NA,NA,127,FALSE,21,59.9732041872,"French, Japanese","American English","VSH_Exp2","2016_Mar_24_1419",NA
"Recordings/bibi.wav","yes","b","b","i","yes","i","bibi","Training","bilabial","TrainingItems",1,3,103,15,NA,NA,NA,NA,NA,NA,NA,NA,NA,NA,127,FALSE,21,59.9732041872,"French, Japanese","American English","VSH_Exp2","2016_Mar_24_1419",NA
"Recordings/duda.wav","yes","d","d","u","yes","a","duda","Training","alveolar","TrainingItems",1,4,104,44,NA,NA,NA,NA,NA,NA,NA,NA,NA,NA,127,FALSE,21,59.9732041872,"French, Japanese","American English","VSH_Exp2","2016_Mar_24_1419",NA
"Recordings/safi.wav","no","s","f","a","no","i","safi","Training","alveolar","TrainingItems",1,5,105,50,NA,NA,NA,NA,NA,NA,NA,NA,NA,NA,127,FALSE,21,59.9732041872,"French, Japanese","American English","VSH_Exp2","2016_Mar_24_1419",NA
"Recordings/dabu.wav","yes","d","b","a","yes","u","dabu","Training","alveolar","TrainingItems",1,6,106,21,NA,NA,NA,NA,NA,NA,NA,NA,NA,NA,127,FALSE,21,59.9732041872,"French, Japanese","American English","VSH_Exp2","2016_Mar_24_1419",NA
"Recordings/fisu.wav","no","f","s","i","no","u","fisu","Training","bilabial","TrainingItems",1,7,107,58,NA,NA,NA,NA,NA,NA,NA,NA,NA,NA,127,FALSE,21,59.9732041872,"French, Japanese","American English","VSH_Exp2","2016_Mar_24_1419",NA
"Recordings/fifa.wav","no","f","f","i","no","a","fifa","Training","bilabial","TrainingItems",1,8,108,72,NA,NA,NA,NA,NA,NA,NA,NA,NA,NA,127,FALSE,21,59.9732041872,"French, Japanese","American English","VSH_Exp2","2016_Mar_24_1419",NA
"Recordings/vuva.wav","yes","v","v","u","no","a","vuva","Training","bilabial","TrainingItems",1,9,109,83,NA,NA,NA,NA,NA,NA,NA,NA,NA,NA,127,FALSE,21,59.9732041872,"French, Japanese","American English","VSH_Exp2","2016_Mar_24_1419",NA
"Recordings/fifi.wav","no","f","f","i","no","i","fifi","Training","bilabial","TrainingItems",1,10,110,68,NA,NA,NA,NA,NA,NA,NA,NA,NA,NA,127,FALSE,21,59.9732041872,"French, Japanese","American English","VSH_Exp2","2016_Mar_24_1419",NA
"Recordings/tutu.wav","no","t","t","u","yes","u","tutu","Training","alveolar","TrainingItems",1,11,111,80,NA,NA,NA,NA,NA,NA,NA,NA,NA,NA,127,FALSE,21,59.9732041872,"French, Japanese","American English","VSH_Exp2","2016_Mar_24_1419",NA
"Recordings/sifa.wav","no","s","f","i","no","a","sifa","Training","alveolar","TrainingItems",1,12,112,91,NA,NA,NA,NA,NA,NA,NA,NA,NA,NA,127,FALSE,21,59.9732041872,"French, Japanese","American English","VSH_Exp2","2016_Mar_24_1419",NA
"Recordings/tipi.wav","no","t","p","i","yes","i","tipi","Training","alveolar","TrainingItems",1,13,113,9,NA,NA,NA,NA,NA,NA,NA,NA,NA,NA,127,FALSE,21,59.9732041872,"French, Japanese","American English","VSH_Exp2","2016_Mar_24_1419",NA
"Recordings/sufu.wav","no","s","f","u","no","u","sufu","Training","alveolar","TrainingItems",1,14,114,89,NA,NA,NA,NA,NA,NA,NA,NA,NA,NA,127,FALSE,21,59.9732041872,"French, Japanese","American English","VSH_Exp2","2016_Mar_24_1419",NA
"Recordings/safa.wav","no","s","f","a","no","a","safa","Training","alveolar","TrainingItems",1,15,115,24,NA,NA,NA,NA,NA,NA,NA,NA,NA,NA,127,FALSE,21,59.9732041872,"French, Japanese","American English","VSH_Exp2","2016_Mar_24_1419",NA
"Recordings/bibu.wav","yes","b","b","i","yes","u","bibu","Training","bilabial","TrainingItems",1,16,116,34,NA,NA,NA,NA,NA,NA,NA,NA,NA,NA,127,FALSE,21,59.9732041872,"French, Japanese","American English","VSH_Exp2","2016_Mar_24_1419",NA
"Recordings/sasu.wav","no","s","s","a","no","u","sasu","Training","alveolar","TrainingItems",1,17,117,66,NA,NA,NA,NA,NA,NA,NA,NA,NA,NA,127,FALSE,21,59.9732041872,"French, Japanese","American English","VSH_Exp2","2016_Mar_24_1419",NA
"Recordings/zaza.wav","yes","z","z","a","no","a","zaza","Training","alveolar","TrainingItems",1,18,118,84,NA,NA,NA,NA,NA,NA,NA,NA,NA,NA,127,FALSE,21,59.9732041872,"French, Japanese","American English","VSH_Exp2","2016_Mar_24_1419",NA
"Recordings/vuvi.wav","yes","v","v","u","no","i","vuvi","Training","bilabial","TrainingItems",1,19,119,62,NA,NA,NA,NA,NA,NA,NA,NA,NA,NA,127,FALSE,21,59.9732041872,"French, Japanese","American English","VSH_Exp2","2016_Mar_24_1419",NA
"Recordings/vuvu.wav","yes","v","v","u","no","u","vuvu","Training","bilabial","TrainingItems",1,20,120,23,NA,NA,NA,NA,NA,NA,NA,NA,NA,NA,127,FALSE,21,59.9732041872,"French, Japanese","American English","VSH_Exp2","2016_Mar_24_1419",NA
"Recordings/dadi.wav","yes","d","d","a","yes","i","dadi","Training","alveolar","TrainingItems",1,21,121,29,NA,NA,NA,NA,NA,NA,NA,NA,NA,NA,127,FALSE,21,59.9732041872,"French, Japanese","American English","VSH_Exp2","2016_Mar_24_1419",NA
"Recordings/dudi.wav","yes","d","d","u","yes","i","dudi","Training","alveolar","TrainingItems",1,22,122,46,NA,NA,NA,NA,NA,NA,NA,NA,NA,NA,127,FALSE,21,59.9732041872,"French, Japanese","American English","VSH_Exp2","2016_Mar_24_1419",NA
"Recordings/buba.wav","yes","b","b","u","yes","a","buba","Training","bilabial","TrainingItems",1,23,123,98,NA,NA,NA,NA,NA,NA,NA,NA,NA,NA,127,FALSE,21,59.9732041872,"French, Japanese","American English","VSH_Exp2","2016_Mar_24_1419",NA
"Recordings/puti.wav","no","p","t","u","yes","i","puti","Training","bilabial","TrainingItems",1,24,124,69,NA,NA,NA,NA,NA,NA,NA,NA,NA,NA,127,FALSE,21,59.9732041872,"French, Japanese","American English","VSH_Exp2","2016_Mar_24_1419",NA
"Recordings/tuti.wav","no","t","t","u","yes","i","tuti","Training","alveolar","TrainingItems",1,25,125,41,NA,NA,NA,NA,NA,NA,NA,NA,NA,NA,127,FALSE,21,59.9732041872,"French, Japanese","American English","VSH_Exp2","2016_Mar_24_1419",NA
"Recordings/daba.wav","yes","d","b","a","yes","a","daba","Training","alveolar","TrainingItems",1,26,126,96,NA,NA,NA,NA,NA,NA,NA,NA,NA,NA,127,FALSE,21,59.9732041872,"French, Japanese","American English","VSH_Exp2","2016_Mar_24_1419",NA
"Recordings/tata.wav","no","t","t","a","yes","a","tata","Training","alveolar","TrainingItems",1,27,127,48,NA,NA,NA,NA,NA,NA,NA,NA,NA,NA,127,FALSE,21,59.9732041872,"French, Japanese","American English","VSH_Exp2","2016_Mar_24_1419",NA
"Recordings/tita.wav","no","t","t","i","yes","a","tita","Training","alveolar","TrainingItems",1,28,128,94,NA,NA,NA,NA,NA,NA,NA,NA,NA,NA,127,FALSE,21,59.9732041872,"French, Japanese","American English","VSH_Exp2","2016_Mar_24_1419",NA
"Recordings/didu.wav","yes","d","d","i","yes","u","didu","Training","alveolar","TrainingItems",1,29,129,55,NA,NA,NA,NA,NA,NA,NA,NA,NA,NA,127,FALSE,21,59.9732041872,"French, Japanese","American English","VSH_Exp2","2016_Mar_24_1419",NA
"Recordings/dibi.wav","yes","d","b","i","yes","i","dibi","Training","alveolar","TrainingItems",1,30,130,32,NA,NA,NA,NA,NA,NA,NA,NA,NA,NA,127,FALSE,21,59.9732041872,"French, Japanese","American English","VSH_Exp2","2016_Mar_24_1419",NA
"Recordings/sasi.wav","no","s","s","a","no","i","sasi","Training","alveolar","TrainingItems",1,31,131,14,NA,NA,NA,NA,NA,NA,NA,NA,NA,NA,127,FALSE,21,59.9732041872,"French, Japanese","American English","VSH_Exp2","2016_Mar_24_1419",NA
"Recordings/fusu.wav","no","f","s","u","no","u","fusu","Training","bilabial","TrainingItems",1,32,132,43,NA,NA,NA,NA,NA,NA,NA,NA,NA,NA,127,FALSE,21,59.9732041872,"French, Japanese","American English","VSH_Exp2","2016_Mar_24_1419",NA
"Recordings/dubu.wav","yes","d","b","u","yes","u","dubu","Training","alveolar","TrainingItems",1,33,133,31,NA,NA,NA,NA,NA,NA,NA,NA,NA,NA,127,FALSE,21,59.9732041872,"French, Japanese","American English","VSH_Exp2","2016_Mar_24_1419",NA
"Recordings/fafi.wav","no","f","f","a","no","i","fafi","Training","bilabial","TrainingItems",1,34,134,53,NA,NA,NA,NA,NA,NA,NA,NA,NA,NA,127,FALSE,21,59.9732041872,"French, Japanese","American English","VSH_Exp2","2016_Mar_24_1419",NA
"Recordings/pitu.wav","no","p","t","i","yes","u","pitu","Training","bilabial","TrainingItems",1,35,135,35,NA,NA,NA,NA,NA,NA,NA,NA,NA,NA,127,FALSE,21,59.9732041872,"French, Japanese","American English","VSH_Exp2","2016_Mar_24_1419",NA
"Recordings/didi.wav","yes","d","d","i","yes","i","didi","Training","alveolar","TrainingItems",1,36,136,56,NA,NA,NA,NA,NA,NA,NA,NA,NA,NA,127,FALSE,21,59.9732041872,"French, Japanese","American English","VSH_Exp2","2016_Mar_24_1419",NA
"Recordings/pupu.wav","no","p","p","u","yes","u","pupu","Training","bilabial","TrainingItems",1,37,137,87,NA,NA,NA,NA,NA,NA,NA,NA,NA,NA,127,FALSE,21,59.9732041872,"French, Japanese","American English","VSH_Exp2","2016_Mar_24_1419",NA
"Recordings/pupi.wav","no","p","p","u","yes","i","pupi","Training","bilabial","TrainingItems",1,38,138,27,NA,NA,NA,NA,NA,NA,NA,NA,NA,NA,127,FALSE,21,59.9732041872,"French, Japanese","American English","VSH_Exp2","2016_Mar_24_1419",NA
"Recordings/pupa.wav","no","p","p","u","yes","a","pupa","Training","bilabial","TrainingItems",1,39,139,74,NA,NA,NA,NA,NA,NA,NA,NA,NA,NA,127,FALSE,21,59.9732041872,"French, Japanese","American English","VSH_Exp2","2016_Mar_24_1419",NA
"Recordings/titi.wav","no","t","t","i","yes","i","titi","Training","alveolar","TrainingItems",1,40,140,28,NA,NA,NA,NA,NA,NA,NA,NA,NA,NA,127,FALSE,21,59.9732041872,"French, Japanese","American English","VSH_Exp2","2016_Mar_24_1419",NA
"Recordings/vavi.wav","yes","v","v","a","no","i","vavi","Training","bilabial","TrainingItems",1,41,141,97,NA,NA,NA,NA,NA,NA,NA,NA,NA,NA,127,FALSE,21,59.9732041872,"French, Japanese","American English","VSH_Exp2","2016_Mar_24_1419",NA
"Recordings/baba.wav","yes","b","b","a","yes","a","baba","Training","bilabial","TrainingItems",1,42,142,99,NA,NA,NA,NA,NA,NA,NA,NA,NA,NA,127,FALSE,21,59.9732041872,"French, Japanese","American English","VSH_Exp2","2016_Mar_24_1419",NA
"Recordings/tapi.wav","no","t","p","a","yes","i","tapi","Training","alveolar","TrainingItems",1,43,143,38,NA,NA,NA,NA,NA,NA,NA,NA,NA,NA,127,FALSE,21,59.9732041872,"French, Japanese","American English","VSH_Exp2","2016_Mar_24_1419",NA
"Recordings/zizu.wav","yes","z","z","i","no","u","zizu","Training","alveolar","TrainingItems",1,44,144,2,NA,NA,NA,NA,NA,NA,NA,NA,NA,NA,127,FALSE,21,59.9732041872,"French, Japanese","American English","VSH_Exp2","2016_Mar_24_1419",NA
"Recordings/bubu.wav","yes","b","b","u","yes","u","bubu","Training","bilabial","TrainingItems",1,45,145,51,NA,NA,NA,NA,NA,NA,NA,NA,NA,NA,127,FALSE,21,59.9732041872,"French, Japanese","American English","VSH_Exp2","2016_Mar_24_1419",NA
"Recordings/putu.wav","no","p","t","u","yes","u","putu","Training","bilabial","TrainingItems",1,46,146,8,NA,NA,NA,NA,NA,NA,NA,NA,NA,NA,127,FALSE,21,59.9732041872,"French, Japanese","American English","VSH_Exp2","2016_Mar_24_1419",NA
"Recordings/fufi.wav","no","f","f","u","no","i","fufi","Training","bilabial","TrainingItems",1,47,147,90,NA,NA,NA,NA,NA,NA,NA,NA,NA,NA,127,FALSE,21,59.9732041872,"French, Japanese","American English","VSH_Exp2","2016_Mar_24_1419",NA
"Recordings/pati.wav","no","p","t","a","yes","i","pati","Training","bilabial","TrainingItems",1,48,148,63,NA,NA,NA,NA,NA,NA,NA,NA,NA,NA,127,FALSE,21,59.9732041872,"French, Japanese","American English","VSH_Exp2","2016_Mar_24_1419",NA
"Recordings/biba.wav","yes","b","b","i","yes","a","biba","Training","bilabial","TrainingItems",1,49,149,25,NA,NA,NA,NA,NA,NA,NA,NA,NA,NA,127,FALSE,21,59.9732041872,"French, Japanese","American English","VSH_Exp2","2016_Mar_24_1419",NA
"Recordings/papi.wav","no","p","p","a","yes","i","papi","Training","bilabial","TrainingItems",1,50,150,64,NA,NA,NA,NA,NA,NA,NA,NA,NA,NA,127,FALSE,21,59.9732041872,"French, Japanese","American English","VSH_Exp2","2016_Mar_24_1419",NA
"Recordings/ziza.wav","yes","z","z","i","no","a","ziza","Training","alveolar","TrainingItems",1,51,151,12,NA,NA,NA,NA,NA,NA,NA,NA,NA,NA,127,FALSE,21,59.9732041872,"French, Japanese","American English","VSH_Exp2","2016_Mar_24_1419",NA
"Recordings/zizi.wav","yes","z","z","i","no","i","zizi","Training","alveolar","TrainingItems",1,52,152,60,NA,NA,NA,NA,NA,NA,NA,NA,NA,NA,127,FALSE,21,59.9732041872,"French, Japanese","American English","VSH_Exp2","2016_Mar_24_1419",NA
"Recordings/sisu.wav","no","s","s","i","no","u","sisu","Training","alveolar","TrainingItems",1,53,153,78,NA,NA,NA,NA,NA,NA,NA,NA,NA,NA,127,FALSE,21,59.9732041872,"French, Japanese","American English","VSH_Exp2","2016_Mar_24_1419",NA
"Recordings/zazu.wav","yes","z","z","a","no","u","zazu","Training","alveolar","TrainingItems",1,54,154,47,NA,NA,NA,NA,NA,NA,NA,NA,NA,NA,127,FALSE,21,59.9732041872,"French, Japanese","American English","VSH_Exp2","2016_Mar_24_1419",NA
"Recordings/vivi.wav","yes","v","v","i","no","i","vivi","Training","bilabial","TrainingItems",1,55,155,52,NA,NA,NA,NA,NA,NA,NA,NA,NA,NA,127,FALSE,21,59.9732041872,"French, Japanese","American English","VSH_Exp2","2016_Mar_24_1419",NA
"Recordings/fusa.wav","no","f","s","u","no","a","fusa","Training","bilabial","TrainingItems",1,56,156,76,NA,NA,NA,NA,NA,NA,NA,NA,NA,NA,127,FALSE,21,59.9732041872,"French, Japanese","American English","VSH_Exp2","2016_Mar_24_1419",NA
"Recordings/buda.wav","yes","b","d","u","yes","a","buda","Training","bilabial","TrainingItems",1,57,157,45,NA,NA,NA,NA,NA,NA,NA,NA,NA,NA,127,FALSE,21,59.9732041872,"French, Japanese","American English","VSH_Exp2","2016_Mar_24_1419",NA
"Recordings/budu.wav","yes","b","d","u","yes","u","budu","Training","bilabial","TrainingItems",1,58,158,79,NA,NA,NA,NA,NA,NA,NA,NA,NA,NA,127,FALSE,21,59.9732041872,"French, Japanese","American English","VSH_Exp2","2016_Mar_24_1419",NA
"Recordings/bidu.wav","yes","b","d","i","yes","u","bidu","Training","bilabial","TrainingItems",1,59,159,61,NA,NA,NA,NA,NA,NA,NA,NA,NA,NA,127,FALSE,21,59.9732041872,"French, Japanese","American English","VSH_Exp2","2016_Mar_24_1419",NA
"Recordings/susi.wav","no","s","s","u","no","i","susi","Training","alveolar","TrainingItems",1,60,160,95,NA,NA,NA,NA,NA,NA,NA,NA,NA,NA,127,FALSE,21,59.9732041872,"French, Japanese","American English","VSH_Exp2","2016_Mar_24_1419",NA
"Recordings/zuza.wav","yes","z","z","u","no","a","zuza","Training","alveolar","TrainingItems",1,61,161,67,NA,NA,NA,NA,NA,NA,NA,NA,NA,NA,127,FALSE,21,59.9732041872,"French, Japanese","American English","VSH_Exp2","2016_Mar_24_1419",NA
"Recordings/badu.wav","yes","b","d","a","yes","u","badu","Training","bilabial","TrainingItems",1,62,162,36,NA,NA,NA,NA,NA,NA,NA,NA,NA,NA,127,FALSE,21,59.9732041872,"French, Japanese","American English","VSH_Exp2","2016_Mar_24_1419",NA
"Recordings/papu.wav","no","p","p","a","yes","u","papu","Training","bilabial","TrainingItems",1,63,163,4,NA,NA,NA,NA,NA,NA,NA,NA,NA,NA,127,FALSE,21,59.9732041872,"French, Japanese","American English","VSH_Exp2","2016_Mar_24_1419",NA
"Recordings/tipa.wav","no","t","p","i","yes","a","tipa","Training","alveolar","TrainingItems",1,64,164,39,NA,NA,NA,NA,NA,NA,NA,NA,NA,NA,127,FALSE,21,59.9732041872,"French, Japanese","American English","VSH_Exp2","2016_Mar_24_1419",NA
"Recordings/fufu.wav","no","f","f","u","no","u","fufu","Training","bilabial","TrainingItems",1,65,165,11,NA,NA,NA,NA,NA,NA,NA,NA,NA,NA,127,FALSE,21,59.9732041872,"French, Japanese","American English","VSH_Exp2","2016_Mar_24_1419",NA
"Recordings/dubi.wav","yes","d","b","u","yes","i","dubi","Training","alveolar","TrainingItems",1,66,166,33,NA,NA,NA,NA,NA,NA,NA,NA,NA,NA,127,FALSE,21,59.9732041872,"French, Japanese","American English","VSH_Exp2","2016_Mar_24_1419",NA
"Recordings/pipi.wav","no","p","p","i","yes","i","pipi","Training","bilabial","TrainingItems",1,67,167,92,NA,NA,NA,NA,NA,NA,NA,NA,NA,NA,127,FALSE,21,59.9732041872,"French, Japanese","American English","VSH_Exp2","2016_Mar_24_1419",NA
"Recordings/zazi.wav","yes","z","z","a","no","i","zazi","Training","alveolar","TrainingItems",1,68,168,82,NA,NA,NA,NA,NA,NA,NA,NA,NA,NA,127,FALSE,21,59.9732041872,"French, Japanese","American English","VSH_Exp2","2016_Mar_24_1419",NA
"Recordings/puta.wav","no","p","t","u","yes","a","puta","Training","bilabial","TrainingItems",1,69,169,22,NA,NA,NA,NA,NA,NA,NA,NA,NA,NA,127,FALSE,21,59.9732041872,"French, Japanese","American English","VSH_Exp2","2016_Mar_24_1419",NA
"Recordings/tapa.wav","no","t","p","a","yes","a","tapa","Training","alveolar","TrainingItems",1,70,170,71,NA,NA,NA,NA,NA,NA,NA,NA,NA,NA,127,FALSE,21,59.9732041872,"French, Japanese","American English","VSH_Exp2","2016_Mar_24_1419",NA
"Recordings/fasu.wav","no","f","s","a","no","u","fasu","Training","bilabial","TrainingItems",1,71,171,49,NA,NA,NA,NA,NA,NA,NA,NA,NA,NA,127,FALSE,21,59.9732041872,"French, Japanese","American English","VSH_Exp2","2016_Mar_24_1419",NA
"Recordings/fifu.wav","no","f","f","i","no","u","fifu","Training","bilabial","TrainingItems",1,72,172,7,NA,NA,NA,NA,NA,NA,NA,NA,NA,NA,127,FALSE,21,59.9732041872,"French, Japanese","American English","VSH_Exp2","2016_Mar_24_1419",NA
"Recordings/sifi.wav","no","s","f","i","no","i","sifi","Training","alveolar","TrainingItems",1,73,173,85,NA,NA,NA,NA,NA,NA,NA,NA,NA,NA,127,FALSE,21,59.9732041872,"French, Japanese","American English","VSH_Exp2","2016_Mar_24_1419",NA
"Recordings/sufa.wav","no","s","f","u","no","a","sufa","Training","alveolar","TrainingItems",1,74,174,1,NA,NA,NA,NA,NA,NA,NA,NA,NA,NA,127,FALSE,21,59.9732041872,"French, Japanese","American English","VSH_Exp2","2016_Mar_24_1419",NA
"Recordings/viva.wav","yes","v","v","i","no","a","viva","Training","bilabial","TrainingItems",1,75,175,73,NA,NA,NA,NA,NA,NA,NA,NA,NA,NA,127,FALSE,21,59.9732041872,"French, Japanese","American English","VSH_Exp2","2016_Mar_24_1419",NA
"Recordings/pata.wav","no","p","t","a","yes","a","pata","Training","bilabial","TrainingItems",1,76,176,5,NA,NA,NA,NA,NA,NA,NA,NA,NA,NA,127,FALSE,21,59.9732041872,"French, Japanese","American English","VSH_Exp2","2016_Mar_24_1419",NA
"Recordings/zuzi.wav","yes","z","z","u","no","i","zuzi","Training","alveolar","TrainingItems",1,77,177,17,NA,NA,NA,NA,NA,NA,NA,NA,NA,NA,127,FALSE,21,59.9732041872,"French, Japanese","American English","VSH_Exp2","2016_Mar_24_1419",NA
"Recordings/diba.wav","yes","d","b","i","yes","a","diba","Training","alveolar","TrainingItems",1,78,178,20,NA,NA,NA,NA,NA,NA,NA,NA,NA,NA,127,FALSE,21,59.9732041872,"French, Japanese","American English","VSH_Exp2","2016_Mar_24_1419",NA
"Recordings/dabi.wav","yes","d","b","a","yes","i","dabi","Training","alveolar","TrainingItems",1,79,179,75,NA,NA,NA,NA,NA,NA,NA,NA,NA,NA,127,FALSE,21,59.9732041872,"French, Japanese","American English","VSH_Exp2","2016_Mar_24_1419",NA
"Recordings/dada.wav","yes","d","d","a","yes","a","dada","Training","alveolar","TrainingItems",1,80,180,16,NA,NA,NA,NA,NA,NA,NA,NA,NA,NA,127,FALSE,21,59.9732041872,"French, Japanese","American English","VSH_Exp2","2016_Mar_24_1419",NA
"Recordings/tupu.wav","no","t","p","u","yes","u","tupu","Training","alveolar","TrainingItems",1,81,181,10,NA,NA,NA,NA,NA,NA,NA,NA,NA,NA,127,FALSE,21,59.9732041872,"French, Japanese","American English","VSH_Exp2","2016_Mar_24_1419",NA
"Recordings/sifu.wav","no","s","f","i","no","u","sifu","Training","alveolar","TrainingItems",1,82,182,18,NA,NA,NA,NA,NA,NA,NA,NA,NA,NA,127,FALSE,21,59.9732041872,"French, Japanese","American English","VSH_Exp2","2016_Mar_24_1419",NA
"Recordings/vava.wav","yes","v","v","a","no","a","vava","Training","bilabial","TrainingItems",1,83,183,13,NA,NA,NA,NA,NA,NA,NA,NA,NA,NA,127,FALSE,21,59.9732041872,"French, Japanese","American English","VSH_Exp2","2016_Mar_24_1419",NA
"Recordings/titu.wav","no","t","t","i","yes","u","titu","Training","alveolar","TrainingItems",1,84,184,77,NA,NA,NA,NA,NA,NA,NA,NA,NA,NA,127,FALSE,21,59.9732041872,"French, Japanese","American English","VSH_Exp2","2016_Mar_24_1419",NA
"Recordings/fasi.wav","no","f","s","a","no","i","fasi","Training","bilabial","TrainingItems",1,85,185,6,NA,NA,NA,NA,NA,NA,NA,NA,NA,NA,127,FALSE,21,59.9732041872,"French, Japanese","American English","VSH_Exp2","2016_Mar_24_1419",NA
"Recordings/sasa.wav","no","s","s","a","no","a","sasa","Training","alveolar","TrainingItems",1,86,186,59,NA,NA,NA,NA,NA,NA,NA,NA,NA,NA,127,FALSE,21,59.9732041872,"French, Japanese","American English","VSH_Exp2","2016_Mar_24_1419",NA
"Recordings/tipu.wav","no","t","p","i","yes","u","tipu","Training","alveolar","TrainingItems",1,87,187,3,NA,NA,NA,NA,NA,NA,NA,NA,NA,NA,127,FALSE,21,59.9732041872,"French, Japanese","American English","VSH_Exp2","2016_Mar_24_1419",NA
"Recordings/tapu.wav","no","t","p","a","yes","u","tapu","Training","alveolar","TrainingItems",1,88,188,70,NA,NA,NA,NA,NA,NA,NA,NA,NA,NA,127,FALSE,21,59.9732041872,"French, Japanese","American English","VSH_Exp2","2016_Mar_24_1419",NA
"Recordings/tatu.wav","no","t","t","a","yes","u","tatu","Training","alveolar","TrainingItems",1,89,189,81,NA,NA,NA,NA,NA,NA,NA,NA,NA,NA,127,FALSE,21,59.9732041872,"French, Japanese","American English","VSH_Exp2","2016_Mar_24_1419",NA
"Recordings/sisi.wav","no","s","s","i","no","i","sisi","Training","alveolar","TrainingItems",1,90,190,88,NA,NA,NA,NA,NA,NA,NA,NA,NA,NA,127,FALSE,21,59.9732041872,"French, Japanese","American English","VSH_Exp2","2016_Mar_24_1419",NA
"Recordings/dida.wav","yes","d","d","i","yes","a","dida","Training","alveolar","TrainingItems",1,91,191,65,NA,NA,NA,NA,NA,NA,NA,NA,NA,NA,127,FALSE,21,59.9732041872,"French, Japanese","American English","VSH_Exp2","2016_Mar_24_1419",NA
"Recordings/fisi.wav","no","f","s","i","no","i","fisi","Training","bilabial","TrainingItems",1,92,192,0,NA,NA,NA,NA,NA,NA,NA,NA,NA,NA,127,FALSE,21,59.9732041872,"French, Japanese","American English","VSH_Exp2","2016_Mar_24_1419",NA
"Recordings/pipa.wav","no","p","p","i","yes","a","pipa","Training","bilabial","TrainingItems",1,93,193,57,NA,NA,NA,NA,NA,NA,NA,NA,NA,NA,127,FALSE,21,59.9732041872,"French, Japanese","American English","VSH_Exp2","2016_Mar_24_1419",NA
"Recordings/sisa.wav","no","s","s","i","no","a","sisa","Training","alveolar","TrainingItems",1,94,194,54,NA,NA,NA,NA,NA,NA,NA,NA,NA,NA,127,FALSE,21,59.9732041872,"French, Japanese","American English","VSH_Exp2","2016_Mar_24_1419",NA
"Recordings/tuta.wav","no","t","t","u","yes","a","tuta","Training","alveolar","TrainingItems",1,95,195,19,NA,NA,NA,NA,NA,NA,NA,NA,NA,NA,127,FALSE,21,59.9732041872,"French, Japanese","American English","VSH_Exp2","2016_Mar_24_1419",NA
"Recordings/pita.wav","no","p","t","i","yes","a","pita","Training","bilabial","TrainingItems",1,96,196,40,NA,NA,NA,NA,NA,NA,NA,NA,NA,NA,127,FALSE,21,59.9732041872,"French, Japanese","American English","VSH_Exp2","2016_Mar_24_1419",NA
"Recordings/budi.wav","yes","b","d","u","yes","i","budi","Training","bilabial","TrainingItems",1,97,197,93,NA,NA,NA,NA,NA,NA,NA,NA,NA,NA,127,FALSE,21,59.9732041872,"French, Japanese","American English","VSH_Exp2","2016_Mar_24_1419",NA
"Recordings/tati.wav","no","t","t","a","yes","i","tati","Training","alveolar","TrainingItems",1,98,198,26,NA,NA,NA,NA,NA,NA,NA,NA,NA,NA,127,FALSE,21,59.9732041872,"French, Japanese","American English","VSH_Exp2","2016_Mar_24_1419",NA
"Recordings/vivu.wav","yes","v","v","i","no","u","vivu","Training","bilabial","TrainingItems",1,99,199,37,NA,NA,NA,NA,NA,NA,NA,NA,NA,NA,127,FALSE,21,59.9732041872,"French, Japanese","American English","VSH_Exp2","2016_Mar_24_1419",NA
NA,NA,NA,NA,NA,NA,NA,NA,NA,NA,NA,NA,NA,NA,NA,NA,NA,NA,NA,NA,NA,"space",0.918927192688,NA,NA,127,FALSE,21,59.9732041872,"French, Japanese","American English","VSH_Exp2","2016_Mar_24_1419",NA
"Recordings/bibu.wav","yes","b","b","i","yes","u","bibu","Test","bilabial","OldTestStimuli",NA,NA,NA,NA,0,0,0,6,NA,NA,NA,NA,"Yes",4.274,127,FALSE,21,59.9732041872,"French, Japanese","American English","VSH_Exp2","2016_Mar_24_1419",NA
"Recordings/tapu.wav","no","t","p","a","yes","u","tapu","Test","alveolar","OldTestStimuli",NA,NA,NA,NA,0,1,1,1,NA,NA,NA,NA,"Yes",1.036,127,FALSE,21,59.9732041872,"French, Japanese","American English","VSH_Exp2","2016_Mar_24_1419",NA
"Recordings/zuva.wav","yes","z","v","u","no","a","zuva","Test","alveolar","NewConsTestStimuli",NA,NA,NA,NA,0,2,2,12,NA,NA,NA,NA,"No",17.638,127,FALSE,21,59.9732041872,"French, Japanese","American English","VSH_Exp2","2016_Mar_24_1419",NA
"Recordings/duba.wav","yes","d","b","u","yes","a","duba","Test","alveolar","NewWordTestStimuli",NA,NA,NA,NA,0,3,3,24,NA,NA,NA,NA,"Yes",1.637,127,FALSE,21,59.9732041872,"French, Japanese","American English","VSH_Exp2","2016_Mar_24_1419",NA
"Recordings/fizi.wav","no","f","z","i","no","i","fizi","Controls","bilabial","StopControls",NA,NA,NA,NA,0,4,4,36,NA,NA,NA,NA,"Yes",2.521,127,FALSE,21,59.9732041872,"French, Japanese","American English","VSH_Exp2","2016_Mar_24_1419",NA
"Recordings/piva.wav","no","p","v","i","yes","a","piva","Controls","bilabial","NoPatternControls",NA,NA,NA,NA,0,5,5,54,NA,NA,NA,NA,"No",1.604,127,FALSE,21,59.9732041872,"French, Japanese","American English","VSH_Exp2","2016_Mar_24_1419",NA
"Recordings/dadu.wav","yes","d","d","a","yes","u","dadu","Test","alveolar","NewWordTestStimuli",NA,NA,NA,NA,0,6,6,27,NA,NA,NA,NA,"Yes",1.036,127,FALSE,21,59.9732041872,"French, Japanese","American English","VSH_Exp2","2016_Mar_24_1419",NA
"Recordings/tutu.wav","no","t","t","u","yes","u","tutu","Test","alveolar","OldTestStimuli",NA,NA,NA,NA,0,7,7,9,NA,NA,NA,NA,"Yes",0.621,127,FALSE,21,59.9732041872,"French, Japanese","American English","VSH_Exp2","2016_Mar_24_1419",NA
"Recordings/fati.wav","no","f","t","a","no","i","fati","Controls","bilabial","VoicingControls",NA,NA,NA,NA,0,8,8,40,NA,NA,NA,NA,"Yes",0.869,127,FALSE,21,59.9732041872,"French, Japanese","American English","VSH_Exp2","2016_Mar_24_1419",NA
"Recordings/pubi.wav","no","p","b","u","yes","i","pubi","Controls","bilabial","StopControls",NA,NA,NA,NA,0,9,9,37,NA,NA,NA,NA,"Yes",5.19,127,FALSE,21,59.9732041872,"French, Japanese","American English","VSH_Exp2","2016_Mar_24_1419",NA
"Recordings/fuba.wav","no","f","b","u","no","a","fuba","Controls","bilabial","NoPatternControls",NA,NA,NA,NA,0,10,10,56,NA,NA,NA,NA,"Yes",0.904,127,FALSE,21,59.9732041872,"French, Japanese","American English","VSH_Exp2","2016_Mar_24_1419",NA
"Recordings/pava.wav","no","p","v","a","yes","a","pava","Controls","bilabial","NoPatternControls",NA,NA,NA,NA,0,11,11,55,NA,NA,NA,NA,"Yes",1.955,127,FALSE,21,59.9732041872,"French, Japanese","American English","VSH_Exp2","2016_Mar_24_1419",NA
"Recordings/vusu.wav","yes","v","s","u","no","u","vusu","Controls","bilabial","StopControls",NA,NA,NA,NA,0,12,12,33,NA,NA,NA,NA,"Yes",4.724,127,FALSE,21,59.9732041872,"French, Japanese","American English","VSH_Exp2","2016_Mar_24_1419",NA
"Recordings/pazi.wav","no","p","z","a","yes","i","pazi","Controls","bilabial","NoPatternControls",NA,NA,NA,NA,0,13,13,57,NA,NA,NA,NA,"No",2.955,127,FALSE,21,59.9732041872,"French, Japanese","American English","VSH_Exp2","2016_Mar_24_1419",NA
"Recordings/zipu.wav","yes","z","p","i","no","u","zipu","Controls","alveolar","NoPatternControls",NA,NA,NA,NA,0,14,14,52,NA,NA,NA,NA,"Yes",2.204,127,FALSE,21,59.9732041872,"French, Japanese","American English","VSH_Exp2","2016_Mar_24_1419",NA
"Recordings/dudu.wav","yes","d","d","u","yes","u","dudu","Test","alveolar","NewWordTestStimuli",NA,NA,NA,NA,0,15,15,20,NA,NA,NA,NA,"Yes",0.686,127,FALSE,21,59.9732041872,"French, Japanese","American English","VSH_Exp2","2016_Mar_24_1419",NA
"Recordings/daba.wav","yes","d","b","a","yes","a","daba","Test","alveolar","OldTestStimuli",NA,NA,NA,NA,0,16,16,2,NA,NA,NA,NA,"Yes",0.702,127,FALSE,21,59.9732041872,"French, Japanese","American English","VSH_Exp2","2016_Mar_24_1419",NA
"Recordings/tupi.wav","no","t","p","u","yes","i","tupi","Test","alveolar","NewWordTestStimuli",NA,NA,NA,NA,0,17,17,22,NA,NA,NA,NA,"Yes",0.82,127,FALSE,21,59.9732041872,"French, Japanese","American English","VSH_Exp2","2016_Mar_24_1419",NA
"Recordings/sufi.wav","no","s","f","u","no","i","sufi","Test","alveolar","NewWordTestStimuli",NA,NA,NA,NA,0,18,18,25,NA,NA,NA,NA,"Yes",1.003,127,FALSE,21,59.9732041872,"French, Japanese","American English","VSH_Exp2","2016_Mar_24_1419",NA
"Recordings/piti.wav","no","p","t","i","yes","i","piti","Test","bilabial","NewWordTestStimuli",NA,NA,NA,NA,0,19,19,23,NA,NA,NA,NA,"Yes",1.47,127,FALSE,21,59.9732041872,"French, Japanese","American English","VSH_Exp2","2016_Mar_24_1419",NA
"Recordings/tabi.wav","no","t","b","a","yes","i","tabi","Controls","alveolar","StopControls",NA,NA,NA,NA,0,20,20,31,NA,NA,NA,NA,"Yes",0.787,127,FALSE,21,59.9732041872,"French, Japanese","American English","VSH_Exp2","2016_Mar_24_1419",NA
"Recordings/pusu.wav","no","p","s","u","yes","u","pusu","Controls","bilabial","VoicingControls",NA,NA,NA,NA,0,21,21,44,NA,NA,NA,NA,"Yes",0.821,127,FALSE,21,59.9732041872,"French, Japanese","American English","VSH_Exp2","2016_Mar_24_1419",NA
"Recordings/vapa.wav","yes","v","p","a","no","a","vapa","Controls","bilabial","NoPatternControls",NA,NA,NA,NA,0,22,22,53,NA,NA,NA,NA,"Yes",1.003,127,FALSE,21,59.9732041872,"French, Japanese","American English","VSH_Exp2","2016_Mar_24_1419",NA
"Recordings/pufi.wav","no","p","f","u","yes","i","pufi","Controls","bilabial","VoicingControls",NA,NA,NA,NA,0,23,23,47,NA,NA,NA,NA,"No",2.99,127,FALSE,21,59.9732041872,"French, Japanese","American English","VSH_Exp2","2016_Mar_24_1419",NA
"Recordings/fupa.wav","no","f","p","u","no","a","fupa","Controls","bilabial","VoicingControls",NA,NA,NA,NA,0,24,24,46,NA,NA,NA,NA,"Yes",1.137,127,FALSE,21,59.9732041872,"French, Japanese","American English","VSH_Exp2","2016_Mar_24_1419",NA
"Recordings/vafi.wav","yes","v","f","a","no","i","vafi","Controls","bilabial","StopControls",NA,NA,NA,NA,0,25,25,39,NA,NA,NA,NA,"No",2.972,127,FALSE,21,59.9732041872,"French, Japanese","American English","VSH_Exp2","2016_Mar_24_1419",NA
"Recordings/sazi.wav","no","s","z","a","no","i","sazi","Controls","alveolar","StopControls",NA,NA,NA,NA,0,26,26,38,NA,NA,NA,NA,"No",1.655,127,FALSE,21,59.9732041872,"French, Japanese","American English","VSH_Exp2","2016_Mar_24_1419",NA
"Recordings/zavu.wav","yes","z","v","a","no","u","zavu","Test","alveolar","NewConsTestStimuli",NA,NA,NA,NA,0,27,27,17,NA,NA,NA,NA,"Yes",1.786,127,FALSE,21,59.9732041872,"French, Japanese","American English","VSH_Exp2","2016_Mar_24_1419",NA
"Recordings/vudu.wav","yes","v","d","u","no","u","vudu","Controls","bilabial","VoicingControls",NA,NA,NA,NA,0,28,28,43,NA,NA,NA,NA,"Yes",0.852,127,FALSE,21,59.9732041872,"French, Japanese","American English","VSH_Exp2","2016_Mar_24_1419",NA
"Recordings/vabi.wav","yes","v","b","a","no","i","vabi","Controls","bilabial","VoicingControls",NA,NA,NA,NA,0,29,29,49,NA,NA,NA,NA,"Yes",0.654,127,FALSE,21,59.9732041872,"French, Japanese","American English","VSH_Exp2","2016_Mar_24_1419",NA
"Recordings/susu.wav","no","s","s","u","no","u","susu","Test","alveolar","NewWordTestStimuli",NA,NA,NA,NA,0,30,30,28,NA,NA,NA,NA,"No",1.803,127,FALSE,21,59.9732041872,"French, Japanese","American English","VSH_Exp2","2016_Mar_24_1419",NA
"Recordings/vizi.wav","yes","v","z","i","no","i","vizi","Test","bilabial","NewConsTestStimuli",NA,NA,NA,NA,0,31,31,10,NA,NA,NA,NA,"Yes",2.622,127,FALSE,21,59.9732041872,"French, Japanese","American English","VSH_Exp2","2016_Mar_24_1419",NA
"Recordings/zivu.wav","yes","z","v","i","no","u","zivu","Test","alveolar","NewConsTestStimuli",NA,NA,NA,NA,0,32,32,18,NA,NA,NA,NA,"Yes",1.254,127,FALSE,21,59.9732041872,"French, Japanese","American English","VSH_Exp2","2016_Mar_24_1419",NA
"Recordings/taza.wav","no","t","z","a","yes","a","taza","Controls","alveolar","NoPatternControls",NA,NA,NA,NA,0,33,33,51,NA,NA,NA,NA,"Yes",0.953,127,FALSE,21,59.9732041872,"French, Japanese","American English","VSH_Exp2","2016_Mar_24_1419",NA
"Recordings/zuzu.wav","yes","z","z","u","no","u","zuzu","Test","alveolar","NewWordTestStimuli",NA,NA,NA,NA,0,34,34,26,NA,NA,NA,NA,"Yes",1.071,127,FALSE,21,59.9732041872,"French, Japanese","American English","VSH_Exp2","2016_Mar_24_1419",NA
"Recordings/tatu.wav","no","t","t","a","yes","u","tatu","Test","alveolar","OldTestStimuli",NA,NA,NA,NA,0,35,35,3,NA,NA,NA,NA,"Yes",0.569,127,FALSE,21,59.9732041872,"French, Japanese","American English","VSH_Exp2","2016_Mar_24_1419",NA
"Recordings/ziva.wav","yes","z","v","i","no","a","ziva","Test","alveolar","NewConsTestStimuli",NA,NA,NA,NA,0,36,36,11,NA,NA,NA,NA,"No",3.756,127,FALSE,21,59.9732041872,"French, Japanese","American English","VSH_Exp2","2016_Mar_24_1419",NA
"Recordings/pudu.wav","no","p","d","u","yes","u","pudu","Controls","bilabial","StopControls",NA,NA,NA,NA,0,37,37,34,NA,NA,NA,NA,"Yes",0.736,127,FALSE,21,59.9732041872,"French, Japanese","American English","VSH_Exp2","2016_Mar_24_1419",NA
"Recordings/zuvi.wav","yes","z","v","u","no","i","zuvi","Test","alveolar","NewConsTestStimuli",NA,NA,NA,NA,0,38,38,13,NA,NA,NA,NA,"No",1.552,127,FALSE,21,59.9732041872,"French, Japanese","American English","VSH_Exp2","2016_Mar_24_1419",NA
"Recordings/viza.wav","yes","v","z","i","no","a","viza","Test","bilabial","NewConsTestStimuli",NA,NA,NA,NA,0,39,39,16,NA,NA,NA,NA,"Yes",1.404,127,FALSE,21,59.9732041872,"French, Japanese","American English","VSH_Exp2","2016_Mar_24_1419",NA
"Recordings/paba.wav","no","p","b","a","yes","a","paba","Controls","bilabial","StopControls",NA,NA,NA,NA,0,40,40,35,NA,NA,NA,NA,"Yes",0.503,127,FALSE,21,59.9732041872,"French, Japanese","American English","VSH_Exp2","2016_Mar_24_1419",NA
"Recordings/patu.wav","no","p","t","a","yes","u","patu","Test","bilabial","NewWordTestStimuli",NA,NA,NA,NA,0,41,41,21,NA,NA,NA,NA,"Yes",0.669,127,FALSE,21,59.9732041872,"French, Japanese","American English","VSH_Exp2","2016_Mar_24_1419",NA
"Recordings/zivi.wav","yes","z","v","i","no","i","zivi","Test","alveolar","NewConsTestStimuli",NA,NA,NA,NA,0,42,42,15,NA,NA,NA,NA,"No",1.922,127,FALSE,21,59.9732041872,"French, Japanese","American English","VSH_Exp2","2016_Mar_24_1419",NA
"Recordings/duda.wav","yes","d","d","u","yes","a","duda","Test","alveolar","OldTestStimuli",NA,NA,NA,NA,0,43,43,4,NA,NA,NA,NA,"Yes",0.754,127,FALSE,21,59.9732041872,"French, Japanese","American English","VSH_Exp2","2016_Mar_24_1419",NA
"Recordings/sabu.wav","no","s","b","a","no","u","sabu","Controls","alveolar","NoPatternControls",NA,NA,NA,NA,0,44,44,58,NA,NA,NA,NA,"Yes",0.753,127,FALSE,21,59.9732041872,"French, Japanese","American English","VSH_Exp2","2016_Mar_24_1419",NA
"Recordings/vuzi.wav","yes","v","z","u","no","i","vuzi","Test","bilabial","NewConsTestStimuli",NA,NA,NA,NA,0,45,45,19,NA,NA,NA,NA,"Yes",2.506,127,FALSE,21,59.9732041872,"French, Japanese","American English","VSH_Exp2","2016_Mar_24_1419",NA
"Recordings/dudi.wav","yes","d","d","u","yes","i","dudi","Test","alveolar","OldTestStimuli",NA,NA,NA,NA,0,46,46,5,NA,NA,NA,NA,"Yes",0.72,127,FALSE,21,59.9732041872,"French, Japanese","American English","VSH_Exp2","2016_Mar_24_1419",NA
"Recordings/tuti.wav","no","t","t","u","yes","i","tuti","Test","alveolar","OldTestStimuli",NA,NA,NA,NA,0,47,47,7,NA,NA,NA,NA,"Yes",0.753,127,FALSE,21,59.9732041872,"French, Japanese","American English","VSH_Exp2","2016_Mar_24_1419",NA
"Recordings/fusi.wav","no","f","s","u","no","i","fusi","Test","bilabial","NewWordTestStimuli",NA,NA,NA,NA,0,48,48,29,NA,NA,NA,NA,"Yes",2.155,127,FALSE,21,59.9732041872,"French, Japanese","American English","VSH_Exp2","2016_Mar_24_1419",NA
"Recordings/zufu.wav","yes","z","f","u","no","u","zufu","Controls","alveolar","StopControls",NA,NA,NA,NA,0,49,49,32,NA,NA,NA,NA,"Yes",0.802,127,FALSE,21,59.9732041872,"French, Japanese","American English","VSH_Exp2","2016_Mar_24_1419",NA
"Recordings/fiba.wav","no","f","b","i","no","a","fiba","Controls","bilabial","NoPatternControls",NA,NA,NA,NA,0,50,50,50,NA,NA,NA,NA,"Yes",0.886,127,FALSE,21,59.9732041872,"French, Japanese","American English","VSH_Exp2","2016_Mar_24_1419",NA
"Recordings/satu.wav","no","s","t","a","no","u","satu","Controls","alveolar","VoicingControls",NA,NA,NA,NA,0,51,51,48,NA,NA,NA,NA,"No",1.937,127,FALSE,21,59.9732041872,"French, Japanese","American English","VSH_Exp2","2016_Mar_24_1419",NA
"Recordings/zubu.wav","yes","z","b","u","no","u","zubu","Controls","alveolar","VoicingControls",NA,NA,NA,NA,0,52,52,42,NA,NA,NA,NA,"Yes",3.206,127,FALSE,21,59.9732041872,"French, Japanese","American English","VSH_Exp2","2016_Mar_24_1419",NA
"Recordings/dadi.wav","yes","d","d","a","yes","i","dadi","Test","alveolar","OldTestStimuli",NA,NA,NA,NA,0,53,53,0,NA,NA,NA,NA,"Yes",0.551,127,FALSE,21,59.9732041872,"French, Japanese","American English","VSH_Exp2","2016_Mar_24_1419",NA
"Recordings/favu.wav","no","f","v","a","no","u","favu","Controls","bilabial","StopControls",NA,NA,NA,NA,0,54,54,30,NA,NA,NA,NA,"Yes",0.704,127,FALSE,21,59.9732041872,"French, Japanese","American English","VSH_Exp2","2016_Mar_24_1419",NA
"Recordings/pafi.wav","no","p","f","a","yes","i","pafi","Controls","bilabial","VoicingControls",NA,NA,NA,NA,0,55,55,45,NA,NA,NA,NA,"Yes",0.452,127,FALSE,21,59.9732041872,"French, Japanese","American English","VSH_Exp2","2016_Mar_24_1419",NA
"Recordings/vita.wav","yes","v","t","i","no","a","vita","Controls","bilabial","NoPatternControls",NA,NA,NA,NA,0,56,56,59,NA,NA,NA,NA,"Yes",0.637,127,FALSE,21,59.9732041872,"French, Japanese","American English","VSH_Exp2","2016_Mar_24_1419",NA
"Recordings/tusi.wav","no","t","s","u","yes","i","tusi","Controls","alveolar","VoicingControls",NA,NA,NA,NA,0,57,57,41,NA,NA,NA,NA,"Yes",0.57,127,FALSE,21,59.9732041872,"French, Japanese","American English","VSH_Exp2","2016_Mar_24_1419",NA
"Recordings/didi.wav","yes","d","d","i","yes","i","didi","Test","alveolar","OldTestStimuli",NA,NA,NA,NA,0,58,58,8,NA,NA,NA,NA,"Yes",0.423,127,FALSE,21,59.9732041872,"French, Japanese","American English","VSH_Exp2","2016_Mar_24_1419",NA
"Recordings/vizu.wav","yes","v","z","i","no","u","vizu","Test","bilabial","NewConsTestStimuli",NA,NA,NA,NA,0,59,59,14,NA,NA,NA,NA,"Yes",0.406,127,FALSE,21,59.9732041872,"French, Japanese","American English","VSH_Exp2","2016_Mar_24_1419",NA
