"SOUND","VOICING","SEGMENT","SEGMENT3","SEGMENT2","STOP","SEGMENT4","STIMULUS","GENERAL_TYPE","PLACE","TYPE","trials.thisRepN","trials.thisTrialN","trials.thisN","trials.thisIndex","trials_2.thisRepN","trials_2.thisTrialN","trials_2.thisN","trials_2.thisIndex","SpaceBar.keys","SpaceBar.rt","key_resp_2.keys","key_resp_2.rt","rating.response","rating.rt","participant","Gender","Age","frameRate","OtherLanguages","NativeLanguage","expName","date","X34"
NA,NA,NA,NA,NA,NA,NA,NA,NA,NA,NA,NA,NA,NA,NA,NA,NA,NA,NA,"space",2.98713302612,NA,NA,NA,NA,128,FALSE,21,59.9006583739,NA,"American English","VSH_Exp2","2016_Mar_24_1419",NA
"Recordings/badi.wav","yes","b","d","a","yes","i","badi","Training","bilabial","TrainingItems",0,0,0,64,NA,NA,NA,NA,NA,NA,NA,NA,NA,NA,128,FALSE,21,59.9006583739,NA,"American English","VSH_Exp2","2016_Mar_24_1419",NA
"Recordings/zuva.wav","yes","z","v","u","no","a","zuva","Training","alveolar","TrainingItems",0,1,1,38,NA,NA,NA,NA,NA,NA,NA,NA,NA,NA,128,FALSE,21,59.9006583739,NA,"American English","VSH_Exp2","2016_Mar_24_1419",NA
"Recordings/vazi.wav","yes","v","z","a","no","i","vazi","Training","bilabial","TrainingItems",0,2,2,50,NA,NA,NA,NA,NA,NA,NA,NA,NA,NA,128,FALSE,21,59.9006583739,NA,"American English","VSH_Exp2","2016_Mar_24_1419",NA
"Recordings/vaza.wav","yes","v","z","a","no","a","vaza","Training","bilabial","TrainingItems",0,3,3,92,NA,NA,NA,NA,NA,NA,NA,NA,NA,NA,128,FALSE,21,59.9006583739,NA,"American English","VSH_Exp2","2016_Mar_24_1419",NA
"Recordings/bubu.wav","yes","b","b","u","yes","u","bubu","Training","bilabial","TrainingItems",0,4,4,90,NA,NA,NA,NA,NA,NA,NA,NA,NA,NA,128,FALSE,21,59.9006583739,NA,"American English","VSH_Exp2","2016_Mar_24_1419",NA
"Recordings/fufi.wav","no","f","f","u","no","i","fufi","Training","bilabial","TrainingItems",0,5,5,47,NA,NA,NA,NA,NA,NA,NA,NA,NA,NA,128,FALSE,21,59.9006583739,NA,"American English","VSH_Exp2","2016_Mar_24_1419",NA
"Recordings/pata.wav","no","p","t","a","yes","a","pata","Training","bilabial","TrainingItems",0,6,6,73,NA,NA,NA,NA,NA,NA,NA,NA,NA,NA,128,FALSE,21,59.9006583739,NA,"American English","VSH_Exp2","2016_Mar_24_1419",NA
"Recordings/piti.wav","no","p","t","i","yes","i","piti","Training","bilabial","TrainingItems",0,7,7,31,NA,NA,NA,NA,NA,NA,NA,NA,NA,NA,128,FALSE,21,59.9006583739,NA,"American English","VSH_Exp2","2016_Mar_24_1419",NA
"Recordings/zavu.wav","yes","z","v","a","no","u","zavu","Training","alveolar","TrainingItems",0,8,8,26,NA,NA,NA,NA,NA,NA,NA,NA,NA,NA,128,FALSE,21,59.9006583739,NA,"American English","VSH_Exp2","2016_Mar_24_1419",NA
"Recordings/vivu.wav","yes","v","v","i","no","u","vivu","Training","bilabial","TrainingItems",0,9,9,72,NA,NA,NA,NA,NA,NA,NA,NA,NA,NA,128,FALSE,21,59.9006583739,NA,"American English","VSH_Exp2","2016_Mar_24_1419",NA
"Recordings/ziva.wav","yes","z","v","i","no","a","ziva","Training","alveolar","TrainingItems",0,10,10,28,NA,NA,NA,NA,NA,NA,NA,NA,NA,NA,128,FALSE,21,59.9006583739,NA,"American English","VSH_Exp2","2016_Mar_24_1419",NA
"Recordings/fufa.wav","no","f","f","u","no","a","fufa","Training","bilabial","TrainingItems",0,11,11,43,NA,NA,NA,NA,NA,NA,NA,NA,NA,NA,128,FALSE,21,59.9006583739,NA,"American English","VSH_Exp2","2016_Mar_24_1419",NA
"Recordings/fifu.wav","no","f","f","i","no","u","fifu","Training","bilabial","TrainingItems",0,12,12,44,NA,NA,NA,NA,NA,NA,NA,NA,NA,NA,128,FALSE,21,59.9006583739,NA,"American English","VSH_Exp2","2016_Mar_24_1419",NA
"Recordings/tupu.wav","no","t","p","u","yes","u","tupu","Training","alveolar","TrainingItems",0,13,13,71,NA,NA,NA,NA,NA,NA,NA,NA,NA,NA,128,FALSE,21,59.9006583739,NA,"American English","VSH_Exp2","2016_Mar_24_1419",NA
"Recordings/zuvi.wav","yes","z","v","u","no","i","zuvi","Training","alveolar","TrainingItems",0,14,14,60,NA,NA,NA,NA,NA,NA,NA,NA,NA,NA,128,FALSE,21,59.9006583739,NA,"American English","VSH_Exp2","2016_Mar_24_1419",NA
"Recordings/pupu.wav","no","p","p","u","yes","u","pupu","Training","bilabial","TrainingItems",0,15,15,35,NA,NA,NA,NA,NA,NA,NA,NA,NA,NA,128,FALSE,21,59.9006583739,NA,"American English","VSH_Exp2","2016_Mar_24_1419",NA
"Recordings/pipu.wav","no","p","p","i","yes","u","pipu","Training","bilabial","TrainingItems",0,16,16,62,NA,NA,NA,NA,NA,NA,NA,NA,NA,NA,128,FALSE,21,59.9006583739,NA,"American English","VSH_Exp2","2016_Mar_24_1419",NA
"Recordings/vuvu.wav","yes","v","v","u","no","u","vuvu","Training","bilabial","TrainingItems",0,17,17,57,NA,NA,NA,NA,NA,NA,NA,NA,NA,NA,128,FALSE,21,59.9006583739,NA,"American English","VSH_Exp2","2016_Mar_24_1419",NA
"Recordings/sasi.wav","no","s","s","a","no","i","sasi","Training","alveolar","TrainingItems",0,18,18,4,NA,NA,NA,NA,NA,NA,NA,NA,NA,NA,128,FALSE,21,59.9006583739,NA,"American English","VSH_Exp2","2016_Mar_24_1419",NA
"Recordings/zuzi.wav","yes","z","z","u","no","i","zuzi","Training","alveolar","TrainingItems",0,19,19,8,NA,NA,NA,NA,NA,NA,NA,NA,NA,NA,128,FALSE,21,59.9006583739,NA,"American English","VSH_Exp2","2016_Mar_24_1419",NA
"Recordings/dudi.wav","yes","d","d","u","yes","i","dudi","Training","alveolar","TrainingItems",0,20,20,66,NA,NA,NA,NA,NA,NA,NA,NA,NA,NA,128,FALSE,21,59.9006583739,NA,"American English","VSH_Exp2","2016_Mar_24_1419",NA
"Recordings/vuzu.wav","yes","v","z","u","no","u","vuzu","Training","bilabial","TrainingItems",0,21,21,3,NA,NA,NA,NA,NA,NA,NA,NA,NA,NA,128,FALSE,21,59.9006583739,NA,"American English","VSH_Exp2","2016_Mar_24_1419",NA
"Recordings/biba.wav","yes","b","b","i","yes","a","biba","Training","bilabial","TrainingItems",0,22,22,91,NA,NA,NA,NA,NA,NA,NA,NA,NA,NA,128,FALSE,21,59.9006583739,NA,"American English","VSH_Exp2","2016_Mar_24_1419",NA
"Recordings/pupa.wav","no","p","p","u","yes","a","pupa","Training","bilabial","TrainingItems",0,23,23,86,NA,NA,NA,NA,NA,NA,NA,NA,NA,NA,128,FALSE,21,59.9006583739,NA,"American English","VSH_Exp2","2016_Mar_24_1419",NA
"Recordings/zazi.wav","yes","z","z","a","no","i","zazi","Training","alveolar","TrainingItems",0,24,24,48,NA,NA,NA,NA,NA,NA,NA,NA,NA,NA,128,FALSE,21,59.9006583739,NA,"American English","VSH_Exp2","2016_Mar_24_1419",NA
"Recordings/tita.wav","no","t","t","i","yes","a","tita","Training","alveolar","TrainingItems",0,25,25,42,NA,NA,NA,NA,NA,NA,NA,NA,NA,NA,128,FALSE,21,59.9006583739,NA,"American English","VSH_Exp2","2016_Mar_24_1419",NA
"Recordings/daba.wav","yes","d","b","a","yes","a","daba","Training","alveolar","TrainingItems",0,26,26,76,NA,NA,NA,NA,NA,NA,NA,NA,NA,NA,128,FALSE,21,59.9006583739,NA,"American English","VSH_Exp2","2016_Mar_24_1419",NA
"Recordings/zizi.wav","yes","z","z","i","no","i","zizi","Training","alveolar","TrainingItems",0,27,27,22,NA,NA,NA,NA,NA,NA,NA,NA,NA,NA,128,FALSE,21,59.9006583739,NA,"American English","VSH_Exp2","2016_Mar_24_1419",NA
"Recordings/vavu.wav","yes","v","v","a","no","u","vavu","Training","bilabial","TrainingItems",0,28,28,7,NA,NA,NA,NA,NA,NA,NA,NA,NA,NA,128,FALSE,21,59.9006583739,NA,"American English","VSH_Exp2","2016_Mar_24_1419",NA
"Recordings/budi.wav","yes","b","d","u","yes","i","budi","Training","bilabial","TrainingItems",0,29,29,59,NA,NA,NA,NA,NA,NA,NA,NA,NA,NA,128,FALSE,21,59.9006583739,NA,"American English","VSH_Exp2","2016_Mar_24_1419",NA
"Recordings/ziza.wav","yes","z","z","i","no","a","ziza","Training","alveolar","TrainingItems",0,30,30,51,NA,NA,NA,NA,NA,NA,NA,NA,NA,NA,128,FALSE,21,59.9006583739,NA,"American English","VSH_Exp2","2016_Mar_24_1419",NA
"Recordings/zaza.wav","yes","z","z","a","no","a","zaza","Training","alveolar","TrainingItems",0,31,31,61,NA,NA,NA,NA,NA,NA,NA,NA,NA,NA,128,FALSE,21,59.9006583739,NA,"American English","VSH_Exp2","2016_Mar_24_1419",NA
"Recordings/sisa.wav","no","s","s","i","no","a","sisa","Training","alveolar","TrainingItems",0,32,32,58,NA,NA,NA,NA,NA,NA,NA,NA,NA,NA,128,FALSE,21,59.9006583739,NA,"American English","VSH_Exp2","2016_Mar_24_1419",NA
"Recordings/dabu.wav","yes","d","b","a","yes","u","dabu","Training","alveolar","TrainingItems",0,33,33,32,NA,NA,NA,NA,NA,NA,NA,NA,NA,NA,128,FALSE,21,59.9006583739,NA,"American English","VSH_Exp2","2016_Mar_24_1419",NA
"Recordings/puta.wav","no","p","t","u","yes","a","puta","Training","bilabial","TrainingItems",0,34,34,79,NA,NA,NA,NA,NA,NA,NA,NA,NA,NA,128,FALSE,21,59.9006583739,NA,"American English","VSH_Exp2","2016_Mar_24_1419",NA
"Recordings/vuzi.wav","yes","v","z","u","no","i","vuzi","Training","bilabial","TrainingItems",0,35,35,30,NA,NA,NA,NA,NA,NA,NA,NA,NA,NA,128,FALSE,21,59.9006583739,NA,"American English","VSH_Exp2","2016_Mar_24_1419",NA
"Recordings/pita.wav","no","p","t","i","yes","a","pita","Training","bilabial","TrainingItems",0,36,36,15,NA,NA,NA,NA,NA,NA,NA,NA,NA,NA,128,FALSE,21,59.9006583739,NA,"American English","VSH_Exp2","2016_Mar_24_1419",NA
"Recordings/vavi.wav","yes","v","v","a","no","i","vavi","Training","bilabial","TrainingItems",0,37,37,12,NA,NA,NA,NA,NA,NA,NA,NA,NA,NA,128,FALSE,21,59.9006583739,NA,"American English","VSH_Exp2","2016_Mar_24_1419",NA
"Recordings/badu.wav","yes","b","d","a","yes","u","badu","Training","bilabial","TrainingItems",0,38,38,17,NA,NA,NA,NA,NA,NA,NA,NA,NA,NA,128,FALSE,21,59.9006583739,NA,"American English","VSH_Exp2","2016_Mar_24_1419",NA
"Recordings/budu.wav","yes","b","d","u","yes","u","budu","Training","bilabial","TrainingItems",0,39,39,10,NA,NA,NA,NA,NA,NA,NA,NA,NA,NA,128,FALSE,21,59.9006583739,NA,"American English","VSH_Exp2","2016_Mar_24_1419",NA
"Recordings/buba.wav","yes","b","b","u","yes","a","buba","Training","bilabial","TrainingItems",0,40,40,99,NA,NA,NA,NA,NA,NA,NA,NA,NA,NA,128,FALSE,21,59.9006583739,NA,"American English","VSH_Exp2","2016_Mar_24_1419",NA
"Recordings/bida.wav","yes","b","d","i","yes","a","bida","Training","bilabial","TrainingItems",0,41,41,24,NA,NA,NA,NA,NA,NA,NA,NA,NA,NA,128,FALSE,21,59.9006583739,NA,"American English","VSH_Exp2","2016_Mar_24_1419",NA
"Recordings/bubi.wav","yes","b","b","u","yes","i","bubi","Training","bilabial","TrainingItems",0,42,42,78,NA,NA,NA,NA,NA,NA,NA,NA,NA,NA,128,FALSE,21,59.9006583739,NA,"American English","VSH_Exp2","2016_Mar_24_1419",NA
"Recordings/vizu.wav","yes","v","z","i","no","u","vizu","Training","bilabial","TrainingItems",0,43,43,69,NA,NA,NA,NA,NA,NA,NA,NA,NA,NA,128,FALSE,21,59.9006583739,NA,"American English","VSH_Exp2","2016_Mar_24_1419",NA
"Recordings/papi.wav","no","p","p","a","yes","i","papi","Training","bilabial","TrainingItems",0,44,44,63,NA,NA,NA,NA,NA,NA,NA,NA,NA,NA,128,FALSE,21,59.9006583739,NA,"American English","VSH_Exp2","2016_Mar_24_1419",NA
"Recordings/titu.wav","no","t","t","i","yes","u","titu","Training","alveolar","TrainingItems",0,45,45,93,NA,NA,NA,NA,NA,NA,NA,NA,NA,NA,128,FALSE,21,59.9006583739,NA,"American English","VSH_Exp2","2016_Mar_24_1419",NA
"Recordings/vuza.wav","yes","v","z","u","no","a","vuza","Training","bilabial","TrainingItems",0,46,46,27,NA,NA,NA,NA,NA,NA,NA,NA,NA,NA,128,FALSE,21,59.9006583739,NA,"American English","VSH_Exp2","2016_Mar_24_1419",NA
"Recordings/vuvi.wav","yes","v","v","u","no","i","vuvi","Training","bilabial","TrainingItems",0,47,47,83,NA,NA,NA,NA,NA,NA,NA,NA,NA,NA,128,FALSE,21,59.9006583739,NA,"American English","VSH_Exp2","2016_Mar_24_1419",NA
"Recordings/tupi.wav","no","t","p","u","yes","i","tupi","Training","alveolar","TrainingItems",0,48,48,80,NA,NA,NA,NA,NA,NA,NA,NA,NA,NA,128,FALSE,21,59.9006583739,NA,"American English","VSH_Exp2","2016_Mar_24_1419",NA
"Recordings/tipu.wav","no","t","p","i","yes","u","tipu","Training","alveolar","TrainingItems",0,49,49,84,NA,NA,NA,NA,NA,NA,NA,NA,NA,NA,128,FALSE,21,59.9006583739,NA,"American English","VSH_Exp2","2016_Mar_24_1419",NA
"Recordings/duba.wav","yes","d","b","u","yes","a","duba","Training","alveolar","TrainingItems",0,50,50,95,NA,NA,NA,NA,NA,NA,NA,NA,NA,NA,128,FALSE,21,59.9006583739,NA,"American English","VSH_Exp2","2016_Mar_24_1419",NA
"Recordings/zuvu.wav","yes","z","v","u","no","u","zuvu","Training","alveolar","TrainingItems",0,51,51,20,NA,NA,NA,NA,NA,NA,NA,NA,NA,NA,128,FALSE,21,59.9006583739,NA,"American English","VSH_Exp2","2016_Mar_24_1419",NA
"Recordings/tipi.wav","no","t","p","i","yes","i","tipi","Training","alveolar","TrainingItems",0,52,52,67,NA,NA,NA,NA,NA,NA,NA,NA,NA,NA,128,FALSE,21,59.9006583739,NA,"American English","VSH_Exp2","2016_Mar_24_1419",NA
"Recordings/didi.wav","yes","d","d","i","yes","i","didi","Training","alveolar","TrainingItems",0,53,53,70,NA,NA,NA,NA,NA,NA,NA,NA,NA,NA,128,FALSE,21,59.9006583739,NA,"American English","VSH_Exp2","2016_Mar_24_1419",NA
"Recordings/dibu.wav","yes","d","b","i","yes","u","dibu","Training","alveolar","TrainingItems",0,54,54,56,NA,NA,NA,NA,NA,NA,NA,NA,NA,NA,128,FALSE,21,59.9006583739,NA,"American English","VSH_Exp2","2016_Mar_24_1419",NA
"Recordings/pipa.wav","no","p","p","i","yes","a","pipa","Training","bilabial","TrainingItems",0,55,55,11,NA,NA,NA,NA,NA,NA,NA,NA,NA,NA,128,FALSE,21,59.9006583739,NA,"American English","VSH_Exp2","2016_Mar_24_1419",NA
"Recordings/duda.wav","yes","d","d","u","yes","a","duda","Training","alveolar","TrainingItems",0,56,56,52,NA,NA,NA,NA,NA,NA,NA,NA,NA,NA,128,FALSE,21,59.9006583739,NA,"American English","VSH_Exp2","2016_Mar_24_1419",NA
"Recordings/tapa.wav","no","t","p","a","yes","a","tapa","Training","alveolar","TrainingItems",0,57,57,54,NA,NA,NA,NA,NA,NA,NA,NA,NA,NA,128,FALSE,21,59.9006583739,NA,"American English","VSH_Exp2","2016_Mar_24_1419",NA
"Recordings/dada.wav","yes","d","d","a","yes","a","dada","Training","alveolar","TrainingItems",0,58,58,29,NA,NA,NA,NA,NA,NA,NA,NA,NA,NA,128,FALSE,21,59.9006583739,NA,"American English","VSH_Exp2","2016_Mar_24_1419",NA
"Recordings/zivu.wav","yes","z","v","i","no","u","zivu","Training","alveolar","TrainingItems",0,59,59,77,NA,NA,NA,NA,NA,NA,NA,NA,NA,NA,128,FALSE,21,59.9006583739,NA,"American English","VSH_Exp2","2016_Mar_24_1419",NA
"Recordings/tutu.wav","no","t","t","u","yes","u","tutu","Training","alveolar","TrainingItems",0,60,60,33,NA,NA,NA,NA,NA,NA,NA,NA,NA,NA,128,FALSE,21,59.9006583739,NA,"American English","VSH_Exp2","2016_Mar_24_1419",NA
"Recordings/pipi.wav","no","p","p","i","yes","i","pipi","Training","bilabial","TrainingItems",0,61,61,45,NA,NA,NA,NA,NA,NA,NA,NA,NA,NA,128,FALSE,21,59.9006583739,NA,"American English","VSH_Exp2","2016_Mar_24_1419",NA
"Recordings/puti.wav","no","p","t","u","yes","i","puti","Training","bilabial","TrainingItems",0,62,62,23,NA,NA,NA,NA,NA,NA,NA,NA,NA,NA,128,FALSE,21,59.9006583739,NA,"American English","VSH_Exp2","2016_Mar_24_1419",NA
"Recordings/tatu.wav","no","t","t","a","yes","u","tatu","Training","alveolar","TrainingItems",0,63,63,16,NA,NA,NA,NA,NA,NA,NA,NA,NA,NA,128,FALSE,21,59.9006583739,NA,"American English","VSH_Exp2","2016_Mar_24_1419",NA
"Recordings/bada.wav","yes","b","d","a","yes","a","bada","Training","bilabial","TrainingItems",0,64,64,14,NA,NA,NA,NA,NA,NA,NA,NA,NA,NA,128,FALSE,21,59.9006583739,NA,"American English","VSH_Exp2","2016_Mar_24_1419",NA
"Recordings/bidi.wav","yes","b","d","i","yes","i","bidi","Training","bilabial","TrainingItems",0,65,65,0,NA,NA,NA,NA,NA,NA,NA,NA,NA,NA,128,FALSE,21,59.9006583739,NA,"American English","VSH_Exp2","2016_Mar_24_1419",NA
"Recordings/fafa.wav","no","f","f","a","no","a","fafa","Training","bilabial","TrainingItems",0,66,66,9,NA,NA,NA,NA,NA,NA,NA,NA,NA,NA,128,FALSE,21,59.9006583739,NA,"American English","VSH_Exp2","2016_Mar_24_1419",NA
"Recordings/susa.wav","no","s","s","u","no","a","susa","Training","alveolar","TrainingItems",0,67,67,18,NA,NA,NA,NA,NA,NA,NA,NA,NA,NA,128,FALSE,21,59.9006583739,NA,"American English","VSH_Exp2","2016_Mar_24_1419",NA
"Recordings/viza.wav","yes","v","z","i","no","a","viza","Training","bilabial","TrainingItems",0,68,68,49,NA,NA,NA,NA,NA,NA,NA,NA,NA,NA,128,FALSE,21,59.9006583739,NA,"American English","VSH_Exp2","2016_Mar_24_1419",NA
"Recordings/diba.wav","yes","d","b","i","yes","a","diba","Training","alveolar","TrainingItems",0,69,69,13,NA,NA,NA,NA,NA,NA,NA,NA,NA,NA,128,FALSE,21,59.9006583739,NA,"American English","VSH_Exp2","2016_Mar_24_1419",NA
"Recordings/viva.wav","yes","v","v","i","no","a","viva","Training","bilabial","TrainingItems",0,70,70,89,NA,NA,NA,NA,NA,NA,NA,NA,NA,NA,128,FALSE,21,59.9006583739,NA,"American English","VSH_Exp2","2016_Mar_24_1419",NA
"Recordings/titi.wav","no","t","t","i","yes","i","titi","Training","alveolar","TrainingItems",0,71,71,65,NA,NA,NA,NA,NA,NA,NA,NA,NA,NA,128,FALSE,21,59.9006583739,NA,"American English","VSH_Exp2","2016_Mar_24_1419",NA
"Recordings/pati.wav","no","p","t","a","yes","i","pati","Training","bilabial","TrainingItems",0,72,72,82,NA,NA,NA,NA,NA,NA,NA,NA,NA,NA,128,FALSE,21,59.9006583739,NA,"American English","VSH_Exp2","2016_Mar_24_1419",NA
"Recordings/tuti.wav","no","t","t","u","yes","i","tuti","Training","alveolar","TrainingItems",0,73,73,5,NA,NA,NA,NA,NA,NA,NA,NA,NA,NA,128,FALSE,21,59.9006583739,NA,"American English","VSH_Exp2","2016_Mar_24_1419",NA
"Recordings/vava.wav","yes","v","v","a","no","a","vava","Training","bilabial","TrainingItems",0,74,74,55,NA,NA,NA,NA,NA,NA,NA,NA,NA,NA,128,FALSE,21,59.9006583739,NA,"American English","VSH_Exp2","2016_Mar_24_1419",NA
"Recordings/tapu.wav","no","t","p","a","yes","u","tapu","Training","alveolar","TrainingItems",0,75,75,88,NA,NA,NA,NA,NA,NA,NA,NA,NA,NA,128,FALSE,21,59.9006583739,NA,"American English","VSH_Exp2","2016_Mar_24_1419",NA
"Recordings/papu.wav","no","p","p","a","yes","u","papu","Training","bilabial","TrainingItems",0,76,76,2,NA,NA,NA,NA,NA,NA,NA,NA,NA,NA,128,FALSE,21,59.9006583739,NA,"American English","VSH_Exp2","2016_Mar_24_1419",NA
"Recordings/zuza.wav","yes","z","z","u","no","a","zuza","Training","alveolar","TrainingItems",0,77,77,40,NA,NA,NA,NA,NA,NA,NA,NA,NA,NA,128,FALSE,21,59.9006583739,NA,"American English","VSH_Exp2","2016_Mar_24_1419",NA
"Recordings/fafu.wav","no","f","f","a","no","u","fafu","Training","bilabial","TrainingItems",0,78,78,75,NA,NA,NA,NA,NA,NA,NA,NA,NA,NA,128,FALSE,21,59.9006583739,NA,"American English","VSH_Exp2","2016_Mar_24_1419",NA
"Recordings/bidu.wav","yes","b","d","i","yes","u","bidu","Training","bilabial","TrainingItems",0,79,79,41,NA,NA,NA,NA,NA,NA,NA,NA,NA,NA,128,FALSE,21,59.9006583739,NA,"American English","VSH_Exp2","2016_Mar_24_1419",NA
"Recordings/buda.wav","yes","b","d","u","yes","a","buda","Training","bilabial","TrainingItems",0,80,80,53,NA,NA,NA,NA,NA,NA,NA,NA,NA,NA,128,FALSE,21,59.9006583739,NA,"American English","VSH_Exp2","2016_Mar_24_1419",NA
"Recordings/papa.wav","no","p","p","a","yes","a","papa","Training","bilabial","TrainingItems",0,81,81,37,NA,NA,NA,NA,NA,NA,NA,NA,NA,NA,128,FALSE,21,59.9006583739,NA,"American English","VSH_Exp2","2016_Mar_24_1419",NA
"Recordings/fufu.wav","no","f","f","u","no","u","fufu","Training","bilabial","TrainingItems",0,82,82,25,NA,NA,NA,NA,NA,NA,NA,NA,NA,NA,128,FALSE,21,59.9006583739,NA,"American English","VSH_Exp2","2016_Mar_24_1419",NA
"Recordings/pitu.wav","no","p","t","i","yes","u","pitu","Training","bilabial","TrainingItems",0,83,83,21,NA,NA,NA,NA,NA,NA,NA,NA,NA,NA,128,FALSE,21,59.9006583739,NA,"American English","VSH_Exp2","2016_Mar_24_1419",NA
"Recordings/zavi.wav","yes","z","v","a","no","i","zavi","Training","alveolar","TrainingItems",0,84,84,6,NA,NA,NA,NA,NA,NA,NA,NA,NA,NA,128,FALSE,21,59.9006583739,NA,"American English","VSH_Exp2","2016_Mar_24_1419",NA
"Recordings/dadu.wav","yes","d","d","a","yes","u","dadu","Training","alveolar","TrainingItems",0,85,85,19,NA,NA,NA,NA,NA,NA,NA,NA,NA,NA,128,FALSE,21,59.9006583739,NA,"American English","VSH_Exp2","2016_Mar_24_1419",NA
"Recordings/pupi.wav","no","p","p","u","yes","i","pupi","Training","bilabial","TrainingItems",0,86,86,81,NA,NA,NA,NA,NA,NA,NA,NA,NA,NA,128,FALSE,21,59.9006583739,NA,"American English","VSH_Exp2","2016_Mar_24_1419",NA
"Recordings/dida.wav","yes","d","d","i","yes","a","dida","Training","alveolar","TrainingItems",0,87,87,39,NA,NA,NA,NA,NA,NA,NA,NA,NA,NA,128,FALSE,21,59.9006583739,NA,"American English","VSH_Exp2","2016_Mar_24_1419",NA
"Recordings/dabi.wav","yes","d","b","a","yes","i","dabi","Training","alveolar","TrainingItems",0,88,88,36,NA,NA,NA,NA,NA,NA,NA,NA,NA,NA,128,FALSE,21,59.9006583739,NA,"American English","VSH_Exp2","2016_Mar_24_1419",NA
"Recordings/vazu.wav","yes","v","z","a","no","u","vazu","Training","bilabial","TrainingItems",0,89,89,97,NA,NA,NA,NA,NA,NA,NA,NA,NA,NA,128,FALSE,21,59.9006583739,NA,"American English","VSH_Exp2","2016_Mar_24_1419",NA
"Recordings/zivi.wav","yes","z","v","i","no","i","zivi","Training","alveolar","TrainingItems",0,90,90,46,NA,NA,NA,NA,NA,NA,NA,NA,NA,NA,128,FALSE,21,59.9006583739,NA,"American English","VSH_Exp2","2016_Mar_24_1419",NA
"Recordings/bibu.wav","yes","b","b","i","yes","u","bibu","Training","bilabial","TrainingItems",0,91,91,85,NA,NA,NA,NA,NA,NA,NA,NA,NA,NA,128,FALSE,21,59.9006583739,NA,"American English","VSH_Exp2","2016_Mar_24_1419",NA
"Recordings/zizu.wav","yes","z","z","i","no","u","zizu","Training","alveolar","TrainingItems",0,92,92,98,NA,NA,NA,NA,NA,NA,NA,NA,NA,NA,128,FALSE,21,59.9006583739,NA,"American English","VSH_Exp2","2016_Mar_24_1419",NA
"Recordings/dubi.wav","yes","d","b","u","yes","i","dubi","Training","alveolar","TrainingItems",0,93,93,74,NA,NA,NA,NA,NA,NA,NA,NA,NA,NA,128,FALSE,21,59.9006583739,NA,"American English","VSH_Exp2","2016_Mar_24_1419",NA
"Recordings/dudu.wav","yes","d","d","u","yes","u","dudu","Training","alveolar","TrainingItems",0,94,94,34,NA,NA,NA,NA,NA,NA,NA,NA,NA,NA,128,FALSE,21,59.9006583739,NA,"American English","VSH_Exp2","2016_Mar_24_1419",NA
"Recordings/putu.wav","no","p","t","u","yes","u","putu","Training","bilabial","TrainingItems",0,95,95,1,NA,NA,NA,NA,NA,NA,NA,NA,NA,NA,128,FALSE,21,59.9006583739,NA,"American English","VSH_Exp2","2016_Mar_24_1419",NA
"Recordings/sisi.wav","no","s","s","i","no","i","sisi","Training","alveolar","TrainingItems",0,96,96,94,NA,NA,NA,NA,NA,NA,NA,NA,NA,NA,128,FALSE,21,59.9006583739,NA,"American English","VSH_Exp2","2016_Mar_24_1419",NA
"Recordings/tata.wav","no","t","t","a","yes","a","tata","Training","alveolar","TrainingItems",0,97,97,87,NA,NA,NA,NA,NA,NA,NA,NA,NA,NA,128,FALSE,21,59.9006583739,NA,"American English","VSH_Exp2","2016_Mar_24_1419",NA
"Recordings/fifi.wav","no","f","f","i","no","i","fifi","Training","bilabial","TrainingItems",0,98,98,68,NA,NA,NA,NA,NA,NA,NA,NA,NA,NA,128,FALSE,21,59.9006583739,NA,"American English","VSH_Exp2","2016_Mar_24_1419",NA
"Recordings/tati.wav","no","t","t","a","yes","i","tati","Training","alveolar","TrainingItems",0,99,99,96,NA,NA,NA,NA,NA,NA,NA,NA,NA,NA,128,FALSE,21,59.9006583739,NA,"American English","VSH_Exp2","2016_Mar_24_1419",NA
"Recordings/zivu.wav","yes","z","v","i","no","u","zivu","Training","alveolar","TrainingItems",1,0,100,77,NA,NA,NA,NA,NA,NA,NA,NA,NA,NA,128,FALSE,21,59.9006583739,NA,"American English","VSH_Exp2","2016_Mar_24_1419",NA
"Recordings/vazu.wav","yes","v","z","a","no","u","vazu","Training","bilabial","TrainingItems",1,1,101,97,NA,NA,NA,NA,NA,NA,NA,NA,NA,NA,128,FALSE,21,59.9006583739,NA,"American English","VSH_Exp2","2016_Mar_24_1419",NA
"Recordings/puti.wav","no","p","t","u","yes","i","puti","Training","bilabial","TrainingItems",1,2,102,23,NA,NA,NA,NA,NA,NA,NA,NA,NA,NA,128,FALSE,21,59.9006583739,NA,"American English","VSH_Exp2","2016_Mar_24_1419",NA
"Recordings/zazi.wav","yes","z","z","a","no","i","zazi","Training","alveolar","TrainingItems",1,3,103,48,NA,NA,NA,NA,NA,NA,NA,NA,NA,NA,128,FALSE,21,59.9006583739,NA,"American English","VSH_Exp2","2016_Mar_24_1419",NA
"Recordings/bada.wav","yes","b","d","a","yes","a","bada","Training","bilabial","TrainingItems",1,4,104,14,NA,NA,NA,NA,NA,NA,NA,NA,NA,NA,128,FALSE,21,59.9006583739,NA,"American English","VSH_Exp2","2016_Mar_24_1419",NA
"Recordings/dabi.wav","yes","d","b","a","yes","i","dabi","Training","alveolar","TrainingItems",1,5,105,36,NA,NA,NA,NA,NA,NA,NA,NA,NA,NA,128,FALSE,21,59.9006583739,NA,"American English","VSH_Exp2","2016_Mar_24_1419",NA
"Recordings/vuza.wav","yes","v","z","u","no","a","vuza","Training","bilabial","TrainingItems",1,6,106,27,NA,NA,NA,NA,NA,NA,NA,NA,NA,NA,128,FALSE,21,59.9006583739,NA,"American English","VSH_Exp2","2016_Mar_24_1419",NA
"Recordings/budu.wav","yes","b","d","u","yes","u","budu","Training","bilabial","TrainingItems",1,7,107,10,NA,NA,NA,NA,NA,NA,NA,NA,NA,NA,128,FALSE,21,59.9006583739,NA,"American English","VSH_Exp2","2016_Mar_24_1419",NA
"Recordings/fafu.wav","no","f","f","a","no","u","fafu","Training","bilabial","TrainingItems",1,8,108,75,NA,NA,NA,NA,NA,NA,NA,NA,NA,NA,128,FALSE,21,59.9006583739,NA,"American English","VSH_Exp2","2016_Mar_24_1419",NA
"Recordings/fifi.wav","no","f","f","i","no","i","fifi","Training","bilabial","TrainingItems",1,9,109,68,NA,NA,NA,NA,NA,NA,NA,NA,NA,NA,128,FALSE,21,59.9006583739,NA,"American English","VSH_Exp2","2016_Mar_24_1419",NA
"Recordings/daba.wav","yes","d","b","a","yes","a","daba","Training","alveolar","TrainingItems",1,10,110,76,NA,NA,NA,NA,NA,NA,NA,NA,NA,NA,128,FALSE,21,59.9006583739,NA,"American English","VSH_Exp2","2016_Mar_24_1419",NA
"Recordings/tutu.wav","no","t","t","u","yes","u","tutu","Training","alveolar","TrainingItems",1,11,111,33,NA,NA,NA,NA,NA,NA,NA,NA,NA,NA,128,FALSE,21,59.9006583739,NA,"American English","VSH_Exp2","2016_Mar_24_1419",NA
"Recordings/piti.wav","no","p","t","i","yes","i","piti","Training","bilabial","TrainingItems",1,12,112,31,NA,NA,NA,NA,NA,NA,NA,NA,NA,NA,128,FALSE,21,59.9006583739,NA,"American English","VSH_Exp2","2016_Mar_24_1419",NA
"Recordings/vavu.wav","yes","v","v","a","no","u","vavu","Training","bilabial","TrainingItems",1,13,113,7,NA,NA,NA,NA,NA,NA,NA,NA,NA,NA,128,FALSE,21,59.9006583739,NA,"American English","VSH_Exp2","2016_Mar_24_1419",NA
"Recordings/pupu.wav","no","p","p","u","yes","u","pupu","Training","bilabial","TrainingItems",1,14,114,35,NA,NA,NA,NA,NA,NA,NA,NA,NA,NA,128,FALSE,21,59.9006583739,NA,"American English","VSH_Exp2","2016_Mar_24_1419",NA
"Recordings/dabu.wav","yes","d","b","a","yes","u","dabu","Training","alveolar","TrainingItems",1,15,115,32,NA,NA,NA,NA,NA,NA,NA,NA,NA,NA,128,FALSE,21,59.9006583739,NA,"American English","VSH_Exp2","2016_Mar_24_1419",NA
"Recordings/dida.wav","yes","d","d","i","yes","a","dida","Training","alveolar","TrainingItems",1,16,116,39,NA,NA,NA,NA,NA,NA,NA,NA,NA,NA,128,FALSE,21,59.9006583739,NA,"American English","VSH_Exp2","2016_Mar_24_1419",NA
"Recordings/tatu.wav","no","t","t","a","yes","u","tatu","Training","alveolar","TrainingItems",1,17,117,16,NA,NA,NA,NA,NA,NA,NA,NA,NA,NA,128,FALSE,21,59.9006583739,NA,"American English","VSH_Exp2","2016_Mar_24_1419",NA
"Recordings/bida.wav","yes","b","d","i","yes","a","bida","Training","bilabial","TrainingItems",1,18,118,24,NA,NA,NA,NA,NA,NA,NA,NA,NA,NA,128,FALSE,21,59.9006583739,NA,"American English","VSH_Exp2","2016_Mar_24_1419",NA
"Recordings/zizu.wav","yes","z","z","i","no","u","zizu","Training","alveolar","TrainingItems",1,19,119,98,NA,NA,NA,NA,NA,NA,NA,NA,NA,NA,128,FALSE,21,59.9006583739,NA,"American English","VSH_Exp2","2016_Mar_24_1419",NA
"Recordings/badi.wav","yes","b","d","a","yes","i","badi","Training","bilabial","TrainingItems",1,20,120,64,NA,NA,NA,NA,NA,NA,NA,NA,NA,NA,128,FALSE,21,59.9006583739,NA,"American English","VSH_Exp2","2016_Mar_24_1419",NA
"Recordings/bidi.wav","yes","b","d","i","yes","i","bidi","Training","bilabial","TrainingItems",1,21,121,0,NA,NA,NA,NA,NA,NA,NA,NA,NA,NA,128,FALSE,21,59.9006583739,NA,"American English","VSH_Exp2","2016_Mar_24_1419",NA
"Recordings/sisi.wav","no","s","s","i","no","i","sisi","Training","alveolar","TrainingItems",1,22,122,94,NA,NA,NA,NA,NA,NA,NA,NA,NA,NA,128,FALSE,21,59.9006583739,NA,"American English","VSH_Exp2","2016_Mar_24_1419",NA
"Recordings/vava.wav","yes","v","v","a","no","a","vava","Training","bilabial","TrainingItems",1,23,123,55,NA,NA,NA,NA,NA,NA,NA,NA,NA,NA,128,FALSE,21,59.9006583739,NA,"American English","VSH_Exp2","2016_Mar_24_1419",NA
"Recordings/buba.wav","yes","b","b","u","yes","a","buba","Training","bilabial","TrainingItems",1,24,124,99,NA,NA,NA,NA,NA,NA,NA,NA,NA,NA,128,FALSE,21,59.9006583739,NA,"American English","VSH_Exp2","2016_Mar_24_1419",NA
"Recordings/dadu.wav","yes","d","d","a","yes","u","dadu","Training","alveolar","TrainingItems",1,25,125,19,NA,NA,NA,NA,NA,NA,NA,NA,NA,NA,128,FALSE,21,59.9006583739,NA,"American English","VSH_Exp2","2016_Mar_24_1419",NA
"Recordings/bibu.wav","yes","b","b","i","yes","u","bibu","Training","bilabial","TrainingItems",1,26,126,85,NA,NA,NA,NA,NA,NA,NA,NA,NA,NA,128,FALSE,21,59.9006583739,NA,"American English","VSH_Exp2","2016_Mar_24_1419",NA
"Recordings/zuvu.wav","yes","z","v","u","no","u","zuvu","Training","alveolar","TrainingItems",1,27,127,20,NA,NA,NA,NA,NA,NA,NA,NA,NA,NA,128,FALSE,21,59.9006583739,NA,"American English","VSH_Exp2","2016_Mar_24_1419",NA
"Recordings/pita.wav","no","p","t","i","yes","a","pita","Training","bilabial","TrainingItems",1,28,128,15,NA,NA,NA,NA,NA,NA,NA,NA,NA,NA,128,FALSE,21,59.9006583739,NA,"American English","VSH_Exp2","2016_Mar_24_1419",NA
"Recordings/tapu.wav","no","t","p","a","yes","u","tapu","Training","alveolar","TrainingItems",1,29,129,88,NA,NA,NA,NA,NA,NA,NA,NA,NA,NA,128,FALSE,21,59.9006583739,NA,"American English","VSH_Exp2","2016_Mar_24_1419",NA
"Recordings/vizu.wav","yes","v","z","i","no","u","vizu","Training","bilabial","TrainingItems",1,30,130,69,NA,NA,NA,NA,NA,NA,NA,NA,NA,NA,128,FALSE,21,59.9006583739,NA,"American English","VSH_Exp2","2016_Mar_24_1419",NA
"Recordings/papi.wav","no","p","p","a","yes","i","papi","Training","bilabial","TrainingItems",1,31,131,63,NA,NA,NA,NA,NA,NA,NA,NA,NA,NA,128,FALSE,21,59.9006583739,NA,"American English","VSH_Exp2","2016_Mar_24_1419",NA
"Recordings/dubi.wav","yes","d","b","u","yes","i","dubi","Training","alveolar","TrainingItems",1,32,132,74,NA,NA,NA,NA,NA,NA,NA,NA,NA,NA,128,FALSE,21,59.9006583739,NA,"American English","VSH_Exp2","2016_Mar_24_1419",NA
"Recordings/pipu.wav","no","p","p","i","yes","u","pipu","Training","bilabial","TrainingItems",1,33,133,62,NA,NA,NA,NA,NA,NA,NA,NA,NA,NA,128,FALSE,21,59.9006583739,NA,"American English","VSH_Exp2","2016_Mar_24_1419",NA
"Recordings/dibu.wav","yes","d","b","i","yes","u","dibu","Training","alveolar","TrainingItems",1,34,134,56,NA,NA,NA,NA,NA,NA,NA,NA,NA,NA,128,FALSE,21,59.9006583739,NA,"American English","VSH_Exp2","2016_Mar_24_1419",NA
"Recordings/putu.wav","no","p","t","u","yes","u","putu","Training","bilabial","TrainingItems",1,35,135,1,NA,NA,NA,NA,NA,NA,NA,NA,NA,NA,128,FALSE,21,59.9006583739,NA,"American English","VSH_Exp2","2016_Mar_24_1419",NA
"Recordings/budi.wav","yes","b","d","u","yes","i","budi","Training","bilabial","TrainingItems",1,36,136,59,NA,NA,NA,NA,NA,NA,NA,NA,NA,NA,128,FALSE,21,59.9006583739,NA,"American English","VSH_Exp2","2016_Mar_24_1419",NA
"Recordings/susa.wav","no","s","s","u","no","a","susa","Training","alveolar","TrainingItems",1,37,137,18,NA,NA,NA,NA,NA,NA,NA,NA,NA,NA,128,FALSE,21,59.9006583739,NA,"American English","VSH_Exp2","2016_Mar_24_1419",NA
"Recordings/vazi.wav","yes","v","z","a","no","i","vazi","Training","bilabial","TrainingItems",1,38,138,50,NA,NA,NA,NA,NA,NA,NA,NA,NA,NA,128,FALSE,21,59.9006583739,NA,"American English","VSH_Exp2","2016_Mar_24_1419",NA
"Recordings/badu.wav","yes","b","d","a","yes","u","badu","Training","bilabial","TrainingItems",1,39,139,17,NA,NA,NA,NA,NA,NA,NA,NA,NA,NA,128,FALSE,21,59.9006583739,NA,"American English","VSH_Exp2","2016_Mar_24_1419",NA
"Recordings/sisa.wav","no","s","s","i","no","a","sisa","Training","alveolar","TrainingItems",1,40,140,58,NA,NA,NA,NA,NA,NA,NA,NA,NA,NA,128,FALSE,21,59.9006583739,NA,"American English","VSH_Exp2","2016_Mar_24_1419",NA
"Recordings/dada.wav","yes","d","d","a","yes","a","dada","Training","alveolar","TrainingItems",1,41,141,29,NA,NA,NA,NA,NA,NA,NA,NA,NA,NA,128,FALSE,21,59.9006583739,NA,"American English","VSH_Exp2","2016_Mar_24_1419",NA
"Recordings/didi.wav","yes","d","d","i","yes","i","didi","Training","alveolar","TrainingItems",1,42,142,70,NA,NA,NA,NA,NA,NA,NA,NA,NA,NA,128,FALSE,21,59.9006583739,NA,"American English","VSH_Exp2","2016_Mar_24_1419",NA
"Recordings/tupu.wav","no","t","p","u","yes","u","tupu","Training","alveolar","TrainingItems",1,43,143,71,NA,NA,NA,NA,NA,NA,NA,NA,NA,NA,128,FALSE,21,59.9006583739,NA,"American English","VSH_Exp2","2016_Mar_24_1419",NA
"Recordings/vuzu.wav","yes","v","z","u","no","u","vuzu","Training","bilabial","TrainingItems",1,44,144,3,NA,NA,NA,NA,NA,NA,NA,NA,NA,NA,128,FALSE,21,59.9006583739,NA,"American English","VSH_Exp2","2016_Mar_24_1419",NA
"Recordings/fufa.wav","no","f","f","u","no","a","fufa","Training","bilabial","TrainingItems",1,45,145,43,NA,NA,NA,NA,NA,NA,NA,NA,NA,NA,128,FALSE,21,59.9006583739,NA,"American English","VSH_Exp2","2016_Mar_24_1419",NA
"Recordings/ziva.wav","yes","z","v","i","no","a","ziva","Training","alveolar","TrainingItems",1,46,146,28,NA,NA,NA,NA,NA,NA,NA,NA,NA,NA,128,FALSE,21,59.9006583739,NA,"American English","VSH_Exp2","2016_Mar_24_1419",NA
"Recordings/pitu.wav","no","p","t","i","yes","u","pitu","Training","bilabial","TrainingItems",1,47,147,21,NA,NA,NA,NA,NA,NA,NA,NA,NA,NA,128,FALSE,21,59.9006583739,NA,"American English","VSH_Exp2","2016_Mar_24_1419",NA
"Recordings/tupi.wav","no","t","p","u","yes","i","tupi","Training","alveolar","TrainingItems",1,48,148,80,NA,NA,NA,NA,NA,NA,NA,NA,NA,NA,128,FALSE,21,59.9006583739,NA,"American English","VSH_Exp2","2016_Mar_24_1419",NA
"Recordings/titi.wav","no","t","t","i","yes","i","titi","Training","alveolar","TrainingItems",1,49,149,65,NA,NA,NA,NA,NA,NA,NA,NA,NA,NA,128,FALSE,21,59.9006583739,NA,"American English","VSH_Exp2","2016_Mar_24_1419",NA
"Recordings/vaza.wav","yes","v","z","a","no","a","vaza","Training","bilabial","TrainingItems",1,50,150,92,NA,NA,NA,NA,NA,NA,NA,NA,NA,NA,128,FALSE,21,59.9006583739,NA,"American English","VSH_Exp2","2016_Mar_24_1419",NA
"Recordings/puta.wav","no","p","t","u","yes","a","puta","Training","bilabial","TrainingItems",1,51,151,79,NA,NA,NA,NA,NA,NA,NA,NA,NA,NA,128,FALSE,21,59.9006583739,NA,"American English","VSH_Exp2","2016_Mar_24_1419",NA
"Recordings/fufu.wav","no","f","f","u","no","u","fufu","Training","bilabial","TrainingItems",1,52,152,25,NA,NA,NA,NA,NA,NA,NA,NA,NA,NA,128,FALSE,21,59.9006583739,NA,"American English","VSH_Exp2","2016_Mar_24_1419",NA
"Recordings/tapa.wav","no","t","p","a","yes","a","tapa","Training","alveolar","TrainingItems",1,53,153,54,NA,NA,NA,NA,NA,NA,NA,NA,NA,NA,128,FALSE,21,59.9006583739,NA,"American English","VSH_Exp2","2016_Mar_24_1419",NA
"Recordings/pata.wav","no","p","t","a","yes","a","pata","Training","bilabial","TrainingItems",1,54,154,73,NA,NA,NA,NA,NA,NA,NA,NA,NA,NA,128,FALSE,21,59.9006583739,NA,"American English","VSH_Exp2","2016_Mar_24_1419",NA
"Recordings/fifu.wav","no","f","f","i","no","u","fifu","Training","bilabial","TrainingItems",1,55,155,44,NA,NA,NA,NA,NA,NA,NA,NA,NA,NA,128,FALSE,21,59.9006583739,NA,"American English","VSH_Exp2","2016_Mar_24_1419",NA
"Recordings/viza.wav","yes","v","z","i","no","a","viza","Training","bilabial","TrainingItems",1,56,156,49,NA,NA,NA,NA,NA,NA,NA,NA,NA,NA,128,FALSE,21,59.9006583739,NA,"American English","VSH_Exp2","2016_Mar_24_1419",NA
"Recordings/bubi.wav","yes","b","b","u","yes","i","bubi","Training","bilabial","TrainingItems",1,57,157,78,NA,NA,NA,NA,NA,NA,NA,NA,NA,NA,128,FALSE,21,59.9006583739,NA,"American English","VSH_Exp2","2016_Mar_24_1419",NA
"Recordings/biba.wav","yes","b","b","i","yes","a","biba","Training","bilabial","TrainingItems",1,58,158,91,NA,NA,NA,NA,NA,NA,NA,NA,NA,NA,128,FALSE,21,59.9006583739,NA,"American English","VSH_Exp2","2016_Mar_24_1419",NA
"Recordings/buda.wav","yes","b","d","u","yes","a","buda","Training","bilabial","TrainingItems",1,59,159,53,NA,NA,NA,NA,NA,NA,NA,NA,NA,NA,128,FALSE,21,59.9006583739,NA,"American English","VSH_Exp2","2016_Mar_24_1419",NA
"Recordings/vavi.wav","yes","v","v","a","no","i","vavi","Training","bilabial","TrainingItems",1,60,160,12,NA,NA,NA,NA,NA,NA,NA,NA,NA,NA,128,FALSE,21,59.9006583739,NA,"American English","VSH_Exp2","2016_Mar_24_1419",NA
"Recordings/bubu.wav","yes","b","b","u","yes","u","bubu","Training","bilabial","TrainingItems",1,61,161,90,NA,NA,NA,NA,NA,NA,NA,NA,NA,NA,128,FALSE,21,59.9006583739,NA,"American English","VSH_Exp2","2016_Mar_24_1419",NA
"Recordings/pipi.wav","no","p","p","i","yes","i","pipi","Training","bilabial","TrainingItems",1,62,162,45,NA,NA,NA,NA,NA,NA,NA,NA,NA,NA,128,FALSE,21,59.9006583739,NA,"American English","VSH_Exp2","2016_Mar_24_1419",NA
"Recordings/zavu.wav","yes","z","v","a","no","u","zavu","Training","alveolar","TrainingItems",1,63,163,26,NA,NA,NA,NA,NA,NA,NA,NA,NA,NA,128,FALSE,21,59.9006583739,NA,"American English","VSH_Exp2","2016_Mar_24_1419",NA
"Recordings/ziza.wav","yes","z","z","i","no","a","ziza","Training","alveolar","TrainingItems",1,64,164,51,NA,NA,NA,NA,NA,NA,NA,NA,NA,NA,128,FALSE,21,59.9006583739,NA,"American English","VSH_Exp2","2016_Mar_24_1419",NA
"Recordings/viva.wav","yes","v","v","i","no","a","viva","Training","bilabial","TrainingItems",1,65,165,89,NA,NA,NA,NA,NA,NA,NA,NA,NA,NA,128,FALSE,21,59.9006583739,NA,"American English","VSH_Exp2","2016_Mar_24_1419",NA
"Recordings/fufi.wav","no","f","f","u","no","i","fufi","Training","bilabial","TrainingItems",1,66,166,47,NA,NA,NA,NA,NA,NA,NA,NA,NA,NA,128,FALSE,21,59.9006583739,NA,"American English","VSH_Exp2","2016_Mar_24_1419",NA
"Recordings/zuzi.wav","yes","z","z","u","no","i","zuzi","Training","alveolar","TrainingItems",1,67,167,8,NA,NA,NA,NA,NA,NA,NA,NA,NA,NA,128,FALSE,21,59.9006583739,NA,"American English","VSH_Exp2","2016_Mar_24_1419",NA
"Recordings/pupa.wav","no","p","p","u","yes","a","pupa","Training","bilabial","TrainingItems",1,68,168,86,NA,NA,NA,NA,NA,NA,NA,NA,NA,NA,128,FALSE,21,59.9006583739,NA,"American English","VSH_Exp2","2016_Mar_24_1419",NA
"Recordings/tipi.wav","no","t","p","i","yes","i","tipi","Training","alveolar","TrainingItems",1,69,169,67,NA,NA,NA,NA,NA,NA,NA,NA,NA,NA,128,FALSE,21,59.9006583739,NA,"American English","VSH_Exp2","2016_Mar_24_1419",NA
"Recordings/duba.wav","yes","d","b","u","yes","a","duba","Training","alveolar","TrainingItems",1,70,170,95,NA,NA,NA,NA,NA,NA,NA,NA,NA,NA,128,FALSE,21,59.9006583739,NA,"American English","VSH_Exp2","2016_Mar_24_1419",NA
"Recordings/zaza.wav","yes","z","z","a","no","a","zaza","Training","alveolar","TrainingItems",1,71,171,61,NA,NA,NA,NA,NA,NA,NA,NA,NA,NA,128,FALSE,21,59.9006583739,NA,"American English","VSH_Exp2","2016_Mar_24_1419",NA
"Recordings/zavi.wav","yes","z","v","a","no","i","zavi","Training","alveolar","TrainingItems",1,72,172,6,NA,NA,NA,NA,NA,NA,NA,NA,NA,NA,128,FALSE,21,59.9006583739,NA,"American English","VSH_Exp2","2016_Mar_24_1419",NA
"Recordings/vivu.wav","yes","v","v","i","no","u","vivu","Training","bilabial","TrainingItems",1,73,173,72,NA,NA,NA,NA,NA,NA,NA,NA,NA,NA,128,FALSE,21,59.9006583739,NA,"American English","VSH_Exp2","2016_Mar_24_1419",NA
"Recordings/titu.wav","no","t","t","i","yes","u","titu","Training","alveolar","TrainingItems",1,74,174,93,NA,NA,NA,NA,NA,NA,NA,NA,NA,NA,128,FALSE,21,59.9006583739,NA,"American English","VSH_Exp2","2016_Mar_24_1419",NA
"Recordings/vuvi.wav","yes","v","v","u","no","i","vuvi","Training","bilabial","TrainingItems",1,75,175,83,NA,NA,NA,NA,NA,NA,NA,NA,NA,NA,128,FALSE,21,59.9006583739,NA,"American English","VSH_Exp2","2016_Mar_24_1419",NA
"Recordings/dudu.wav","yes","d","d","u","yes","u","dudu","Training","alveolar","TrainingItems",1,76,176,34,NA,NA,NA,NA,NA,NA,NA,NA,NA,NA,128,FALSE,21,59.9006583739,NA,"American English","VSH_Exp2","2016_Mar_24_1419",NA
"Recordings/sasi.wav","no","s","s","a","no","i","sasi","Training","alveolar","TrainingItems",1,77,177,4,NA,NA,NA,NA,NA,NA,NA,NA,NA,NA,128,FALSE,21,59.9006583739,NA,"American English","VSH_Exp2","2016_Mar_24_1419",NA
"Recordings/pati.wav","no","p","t","a","yes","i","pati","Training","bilabial","TrainingItems",1,78,178,82,NA,NA,NA,NA,NA,NA,NA,NA,NA,NA,128,FALSE,21,59.9006583739,NA,"American English","VSH_Exp2","2016_Mar_24_1419",NA
"Recordings/tata.wav","no","t","t","a","yes","a","tata","Training","alveolar","TrainingItems",1,79,179,87,NA,NA,NA,NA,NA,NA,NA,NA,NA,NA,128,FALSE,21,59.9006583739,NA,"American English","VSH_Exp2","2016_Mar_24_1419",NA
"Recordings/zivi.wav","yes","z","v","i","no","i","zivi","Training","alveolar","TrainingItems",1,80,180,46,NA,NA,NA,NA,NA,NA,NA,NA,NA,NA,128,FALSE,21,59.9006583739,NA,"American English","VSH_Exp2","2016_Mar_24_1419",NA
"Recordings/pipa.wav","no","p","p","i","yes","a","pipa","Training","bilabial","TrainingItems",1,81,181,11,NA,NA,NA,NA,NA,NA,NA,NA,NA,NA,128,FALSE,21,59.9006583739,NA,"American English","VSH_Exp2","2016_Mar_24_1419",NA
"Recordings/zuza.wav","yes","z","z","u","no","a","zuza","Training","alveolar","TrainingItems",1,82,182,40,NA,NA,NA,NA,NA,NA,NA,NA,NA,NA,128,FALSE,21,59.9006583739,NA,"American English","VSH_Exp2","2016_Mar_24_1419",NA
"Recordings/fafa.wav","no","f","f","a","no","a","fafa","Training","bilabial","TrainingItems",1,83,183,9,NA,NA,NA,NA,NA,NA,NA,NA,NA,NA,128,FALSE,21,59.9006583739,NA,"American English","VSH_Exp2","2016_Mar_24_1419",NA
"Recordings/zuvi.wav","yes","z","v","u","no","i","zuvi","Training","alveolar","TrainingItems",1,84,184,60,NA,NA,NA,NA,NA,NA,NA,NA,NA,NA,128,FALSE,21,59.9006583739,NA,"American English","VSH_Exp2","2016_Mar_24_1419",NA
"Recordings/tati.wav","no","t","t","a","yes","i","tati","Training","alveolar","TrainingItems",1,85,185,96,NA,NA,NA,NA,NA,NA,NA,NA,NA,NA,128,FALSE,21,59.9006583739,NA,"American English","VSH_Exp2","2016_Mar_24_1419",NA
"Recordings/dudi.wav","yes","d","d","u","yes","i","dudi","Training","alveolar","TrainingItems",1,86,186,66,NA,NA,NA,NA,NA,NA,NA,NA,NA,NA,128,FALSE,21,59.9006583739,NA,"American English","VSH_Exp2","2016_Mar_24_1419",NA
"Recordings/tuti.wav","no","t","t","u","yes","i","tuti","Training","alveolar","TrainingItems",1,87,187,5,NA,NA,NA,NA,NA,NA,NA,NA,NA,NA,128,FALSE,21,59.9006583739,NA,"American English","VSH_Exp2","2016_Mar_24_1419",NA
"Recordings/zuva.wav","yes","z","v","u","no","a","zuva","Training","alveolar","TrainingItems",1,88,188,38,NA,NA,NA,NA,NA,NA,NA,NA,NA,NA,128,FALSE,21,59.9006583739,NA,"American English","VSH_Exp2","2016_Mar_24_1419",NA
"Recordings/vuzi.wav","yes","v","z","u","no","i","vuzi","Training","bilabial","TrainingItems",1,89,189,30,NA,NA,NA,NA,NA,NA,NA,NA,NA,NA,128,FALSE,21,59.9006583739,NA,"American English","VSH_Exp2","2016_Mar_24_1419",NA
"Recordings/tita.wav","no","t","t","i","yes","a","tita","Training","alveolar","TrainingItems",1,90,190,42,NA,NA,NA,NA,NA,NA,NA,NA,NA,NA,128,FALSE,21,59.9006583739,NA,"American English","VSH_Exp2","2016_Mar_24_1419",NA
"Recordings/vuvu.wav","yes","v","v","u","no","u","vuvu","Training","bilabial","TrainingItems",1,91,191,57,NA,NA,NA,NA,NA,NA,NA,NA,NA,NA,128,FALSE,21,59.9006583739,NA,"American English","VSH_Exp2","2016_Mar_24_1419",NA
"Recordings/bidu.wav","yes","b","d","i","yes","u","bidu","Training","bilabial","TrainingItems",1,92,192,41,NA,NA,NA,NA,NA,NA,NA,NA,NA,NA,128,FALSE,21,59.9006583739,NA,"American English","VSH_Exp2","2016_Mar_24_1419",NA
"Recordings/papu.wav","no","p","p","a","yes","u","papu","Training","bilabial","TrainingItems",1,93,193,2,NA,NA,NA,NA,NA,NA,NA,NA,NA,NA,128,FALSE,21,59.9006583739,NA,"American English","VSH_Exp2","2016_Mar_24_1419",NA
"Recordings/tipu.wav","no","t","p","i","yes","u","tipu","Training","alveolar","TrainingItems",1,94,194,84,NA,NA,NA,NA,NA,NA,NA,NA,NA,NA,128,FALSE,21,59.9006583739,NA,"American English","VSH_Exp2","2016_Mar_24_1419",NA
"Recordings/duda.wav","yes","d","d","u","yes","a","duda","Training","alveolar","TrainingItems",1,95,195,52,NA,NA,NA,NA,NA,NA,NA,NA,NA,NA,128,FALSE,21,59.9006583739,NA,"American English","VSH_Exp2","2016_Mar_24_1419",NA
"Recordings/pupi.wav","no","p","p","u","yes","i","pupi","Training","bilabial","TrainingItems",1,96,196,81,NA,NA,NA,NA,NA,NA,NA,NA,NA,NA,128,FALSE,21,59.9006583739,NA,"American English","VSH_Exp2","2016_Mar_24_1419",NA
"Recordings/zizi.wav","yes","z","z","i","no","i","zizi","Training","alveolar","TrainingItems",1,97,197,22,NA,NA,NA,NA,NA,NA,NA,NA,NA,NA,128,FALSE,21,59.9006583739,NA,"American English","VSH_Exp2","2016_Mar_24_1419",NA
"Recordings/papa.wav","no","p","p","a","yes","a","papa","Training","bilabial","TrainingItems",1,98,198,37,NA,NA,NA,NA,NA,NA,NA,NA,NA,NA,128,FALSE,21,59.9006583739,NA,"American English","VSH_Exp2","2016_Mar_24_1419",NA
"Recordings/diba.wav","yes","d","b","i","yes","a","diba","Training","alveolar","TrainingItems",1,99,199,13,NA,NA,NA,NA,NA,NA,NA,NA,NA,NA,128,FALSE,21,59.9006583739,NA,"American English","VSH_Exp2","2016_Mar_24_1419",NA
NA,NA,NA,NA,NA,NA,NA,NA,NA,NA,NA,NA,NA,NA,NA,NA,NA,NA,NA,NA,NA,"space",3.93855214119,NA,NA,128,FALSE,21,59.9006583739,NA,"American English","VSH_Exp2","2016_Mar_24_1419",NA
"Recordings/supi.wav","no","s","p","u","no","i","supi","Controls","alveolar","VoicingControls",NA,NA,NA,NA,0,0,0,48,NA,NA,NA,NA,"Yes",5.224,128,FALSE,21,59.9006583739,NA,"American English","VSH_Exp2","2016_Mar_24_1419",NA
"Recordings/sasa.wav","no","s","s","a","no","a","sasa","Test","alveolar","NewWordTestStimuli",NA,NA,NA,NA,0,1,1,25,NA,NA,NA,NA,"Yes",1.454,128,FALSE,21,59.9006583739,NA,"American English","VSH_Exp2","2016_Mar_24_1419",NA
"Recordings/tivu.wav","no","t","v","i","yes","u","tivu","Controls","alveolar","NoPatternControls",NA,NA,NA,NA,0,2,2,55,NA,NA,NA,NA,"No",1.587,128,FALSE,21,59.9006583739,NA,"American English","VSH_Exp2","2016_Mar_24_1419",NA
"Recordings/safi.wav","no","s","f","a","no","i","safi","Test","alveolar","NewConsTestStimuli",NA,NA,NA,NA,0,3,3,13,NA,NA,NA,NA,"Yes",1.238,128,FALSE,21,59.9006583739,NA,"American English","VSH_Exp2","2016_Mar_24_1419",NA
"Recordings/biva.wav","yes","b","v","i","yes","a","biva","Controls","bilabial","VoicingControls",NA,NA,NA,NA,0,4,4,40,NA,NA,NA,NA,"Yes",0.705,128,FALSE,21,59.9006583739,NA,"American English","VSH_Exp2","2016_Mar_24_1419",NA
"Recordings/pipu.wav","no","p","p","i","yes","u","pipu","Test","bilabial","OldTestStimuli",NA,NA,NA,NA,0,5,5,5,NA,NA,NA,NA,"Yes",0.804,128,FALSE,21,59.9006583739,NA,"American English","VSH_Exp2","2016_Mar_24_1419",NA
"Recordings/visu.wav","yes","v","s","i","no","u","visu","Controls","bilabial","StopControls",NA,NA,NA,NA,0,6,6,36,NA,NA,NA,NA,"Yes",1.037,128,FALSE,21,59.9006583739,NA,"American English","VSH_Exp2","2016_Mar_24_1419",NA
"Recordings/dadi.wav","yes","d","d","a","yes","i","dadi","Test","alveolar","NewWordTestStimuli",NA,NA,NA,NA,0,7,7,29,NA,NA,NA,NA,"Yes",0.619,128,FALSE,21,59.9006583739,NA,"American English","VSH_Exp2","2016_Mar_24_1419",NA
"Recordings/pibi.wav","no","p","b","i","yes","i","pibi","Controls","bilabial","StopControls",NA,NA,NA,NA,0,8,8,32,NA,NA,NA,NA,"No",2.706,128,FALSE,21,59.9006583739,NA,"American English","VSH_Exp2","2016_Mar_24_1419",NA
"Recordings/vifi.wav","yes","v","f","i","no","i","vifi","Controls","bilabial","StopControls",NA,NA,NA,NA,0,9,9,33,NA,NA,NA,NA,"Yes",0.886,128,FALSE,21,59.9006583739,NA,"American English","VSH_Exp2","2016_Mar_24_1419",NA
"Recordings/zava.wav","yes","z","v","a","no","a","zava","Test","alveolar","NewWordTestStimuli",NA,NA,NA,NA,0,10,10,28,NA,NA,NA,NA,"Yes",0.836,128,FALSE,21,59.9006583739,NA,"American English","VSH_Exp2","2016_Mar_24_1419",NA
"Recordings/fafu.wav","no","f","f","a","no","u","fafu","Test","bilabial","OldTestStimuli",NA,NA,NA,NA,0,11,11,3,NA,NA,NA,NA,"Yes",0.569,128,FALSE,21,59.9006583739,NA,"American English","VSH_Exp2","2016_Mar_24_1419",NA
"Recordings/vaba.wav","yes","v","b","a","no","a","vaba","Controls","bilabial","VoicingControls",NA,NA,NA,NA,0,12,12,47,NA,NA,NA,NA,"Yes",0.786,128,FALSE,21,59.9006583739,NA,"American English","VSH_Exp2","2016_Mar_24_1419",NA
"Recordings/zizu.wav","yes","z","z","i","no","u","zizu","Test","alveolar","OldTestStimuli",NA,NA,NA,NA,0,13,13,8,NA,NA,NA,NA,"Yes",0.619,128,FALSE,21,59.9006583739,NA,"American English","VSH_Exp2","2016_Mar_24_1419",NA
"Recordings/dada.wav","yes","d","d","a","yes","a","dada","Test","alveolar","OldTestStimuli",NA,NA,NA,NA,0,14,14,9,NA,NA,NA,NA,"Yes",0.67,128,FALSE,21,59.9006583739,NA,"American English","VSH_Exp2","2016_Mar_24_1419",NA
"Recordings/bipa.wav","yes","b","p","i","yes","a","bipa","Controls","bilabial","StopControls",NA,NA,NA,NA,0,15,15,30,NA,NA,NA,NA,"No",1.904,128,FALSE,21,59.9006583739,NA,"American English","VSH_Exp2","2016_Mar_24_1419",NA
"Recordings/faza.wav","no","f","z","a","no","a","faza","Controls","bilabial","StopControls",NA,NA,NA,NA,0,16,16,39,NA,NA,NA,NA,"Yes",1.103,128,FALSE,21,59.9006583739,NA,"American English","VSH_Exp2","2016_Mar_24_1419",NA
"Recordings/sudi.wav","no","s","d","u","no","i","sudi","Controls","alveolar","NoPatternControls",NA,NA,NA,NA,0,17,17,58,NA,NA,NA,NA,"Yes",0.971,128,FALSE,21,59.9006583739,NA,"American English","VSH_Exp2","2016_Mar_24_1419",NA
"Recordings/busu.wav","yes","b","s","u","yes","u","busu","Controls","bilabial","NoPatternControls",NA,NA,NA,NA,0,18,18,50,NA,NA,NA,NA,"Yes",1.105,128,FALSE,21,59.9006583739,NA,"American English","VSH_Exp2","2016_Mar_24_1419",NA
"Recordings/fubi.wav","no","f","b","u","no","i","fubi","Controls","bilabial","NoPatternControls",NA,NA,NA,NA,0,19,19,59,NA,NA,NA,NA,"Yes",0.686,128,FALSE,21,59.9006583739,NA,"American English","VSH_Exp2","2016_Mar_24_1419",NA
"Recordings/fisu.wav","no","f","s","i","no","u","fisu","Test","bilabial","NewConsTestStimuli",NA,NA,NA,NA,0,20,20,19,NA,NA,NA,NA,"Yes",0.653,128,FALSE,21,59.9006583739,NA,"American English","VSH_Exp2","2016_Mar_24_1419",NA
"Recordings/zazu.wav","yes","z","z","a","no","u","zazu","Test","alveolar","NewWordTestStimuli",NA,NA,NA,NA,0,21,21,24,NA,NA,NA,NA,"Yes",0.753,128,FALSE,21,59.9006583739,NA,"American English","VSH_Exp2","2016_Mar_24_1419",NA
"Recordings/bibu.wav","yes","b","b","i","yes","u","bibu","Test","bilabial","OldTestStimuli",NA,NA,NA,NA,0,22,22,6,NA,NA,NA,NA,"Yes",0.903,128,FALSE,21,59.9006583739,NA,"American English","VSH_Exp2","2016_Mar_24_1419",NA
"Recordings/fusa.wav","no","f","s","u","no","a","fusa","Test","bilabial","NewConsTestStimuli",NA,NA,NA,NA,0,23,23,18,NA,NA,NA,NA,"Yes",1.086,128,FALSE,21,59.9006583739,NA,"American English","VSH_Exp2","2016_Mar_24_1419",NA
"Recordings/viza.wav","yes","v","z","i","no","a","viza","Test","bilabial","OldTestStimuli",NA,NA,NA,NA,0,24,24,1,NA,NA,NA,NA,"Yes",0.986,128,FALSE,21,59.9006583739,NA,"American English","VSH_Exp2","2016_Mar_24_1419",NA
"Recordings/vupu.wav","yes","v","p","u","no","u","vupu","Controls","bilabial","NoPatternControls",NA,NA,NA,NA,0,25,25,56,NA,NA,NA,NA,"Yes",2.171,128,FALSE,21,59.9006583739,NA,"American English","VSH_Exp2","2016_Mar_24_1419",NA
"Recordings/sufa.wav","no","s","f","u","no","a","sufa","Test","alveolar","NewConsTestStimuli",NA,NA,NA,NA,0,26,26,15,NA,NA,NA,NA,"No",1.371,128,FALSE,21,59.9006583739,NA,"American English","VSH_Exp2","2016_Mar_24_1419",NA
"Recordings/pifi.wav","no","p","f","i","yes","i","pifi","Controls","bilabial","VoicingControls",NA,NA,NA,NA,0,27,27,42,NA,NA,NA,NA,"Yes",1.136,128,FALSE,21,59.9006583739,NA,"American English","VSH_Exp2","2016_Mar_24_1419",NA
"Recordings/vafa.wav","yes","v","f","a","no","a","vafa","Controls","bilabial","StopControls",NA,NA,NA,NA,0,28,28,37,NA,NA,NA,NA,"Yes",0.637,128,FALSE,21,59.9006583739,NA,"American English","VSH_Exp2","2016_Mar_24_1419",NA
"Recordings/tupi.wav","no","t","p","u","yes","i","tupi","Test","alveolar","OldTestStimuli",NA,NA,NA,NA,0,29,29,7,NA,NA,NA,NA,"Yes",0.752,128,FALSE,21,59.9006583739,NA,"American English","VSH_Exp2","2016_Mar_24_1419",NA
"Recordings/fisa.wav","no","f","s","i","no","a","fisa","Test","bilabial","NewConsTestStimuli",NA,NA,NA,NA,0,30,30,10,NA,NA,NA,NA,"Yes",0.803,128,FALSE,21,59.9006583739,NA,"American English","VSH_Exp2","2016_Mar_24_1419",NA
"Recordings/tapi.wav","no","t","p","a","yes","i","tapi","Test","alveolar","NewWordTestStimuli",NA,NA,NA,NA,0,31,31,26,NA,NA,NA,NA,"Yes",0.619,128,FALSE,21,59.9006583739,NA,"American English","VSH_Exp2","2016_Mar_24_1419",NA
"Recordings/sufu.wav","no","s","f","u","no","u","sufu","Test","alveolar","NewConsTestStimuli",NA,NA,NA,NA,0,32,32,17,NA,NA,NA,NA,"Yes",0.636,128,FALSE,21,59.9006583739,NA,"American English","VSH_Exp2","2016_Mar_24_1419",NA
"Recordings/fusi.wav","no","f","s","u","no","i","fusi","Test","bilabial","NewConsTestStimuli",NA,NA,NA,NA,0,33,33,12,NA,NA,NA,NA,"Yes",0.669,128,FALSE,21,59.9006583739,NA,"American English","VSH_Exp2","2016_Mar_24_1419",NA
"Recordings/sasi.wav","no","s","s","a","no","i","sasi","Test","alveolar","OldTestStimuli",NA,NA,NA,NA,0,34,34,0,NA,NA,NA,NA,"Yes",0.854,128,FALSE,21,59.9006583739,NA,"American English","VSH_Exp2","2016_Mar_24_1419",NA
"Recordings/padu.wav","no","p","d","a","yes","u","padu","Controls","bilabial","StopControls",NA,NA,NA,NA,0,35,35,31,NA,NA,NA,NA,"Yes",0.837,128,FALSE,21,59.9006583739,NA,"American English","VSH_Exp2","2016_Mar_24_1419",NA
"Recordings/safa.wav","no","s","f","a","no","a","safa","Test","alveolar","NewConsTestStimuli",NA,NA,NA,NA,0,36,36,16,NA,NA,NA,NA,"Yes",0.736,128,FALSE,21,59.9006583739,NA,"American English","VSH_Exp2","2016_Mar_24_1419",NA
"Recordings/tupa.wav","no","t","p","u","yes","a","tupa","Test","alveolar","NewWordTestStimuli",NA,NA,NA,NA,0,37,37,27,NA,NA,NA,NA,"Yes",0.652,128,FALSE,21,59.9006583739,NA,"American English","VSH_Exp2","2016_Mar_24_1419",NA
"Recordings/saba.wav","no","s","b","a","no","a","saba","Controls","alveolar","NoPatternControls",NA,NA,NA,NA,0,38,38,54,NA,NA,NA,NA,"Yes",0.903,128,FALSE,21,59.9006583739,NA,"American English","VSH_Exp2","2016_Mar_24_1419",NA
"Recordings/zuva.wav","yes","z","v","u","no","a","zuva","Test","alveolar","OldTestStimuli",NA,NA,NA,NA,0,39,39,2,NA,NA,NA,NA,"Yes",0.92,128,FALSE,21,59.9006583739,NA,"American English","VSH_Exp2","2016_Mar_24_1419",NA
"Recordings/fusu.wav","no","f","s","u","no","u","fusu","Test","bilabial","NewConsTestStimuli",NA,NA,NA,NA,0,40,40,14,NA,NA,NA,NA,"Yes",1.037,128,FALSE,21,59.9006583739,NA,"American English","VSH_Exp2","2016_Mar_24_1419",NA
"Recordings/pasu.wav","no","p","s","a","yes","u","pasu","Controls","bilabial","VoicingControls",NA,NA,NA,NA,0,41,41,41,NA,NA,NA,NA,"Yes",0.802,128,FALSE,21,59.9006583739,NA,"American English","VSH_Exp2","2016_Mar_24_1419",NA
"Recordings/pizi.wav","no","p","z","i","yes","i","pizi","Controls","bilabial","NoPatternControls",NA,NA,NA,NA,0,42,42,52,NA,NA,NA,NA,"Yes",0.886,128,FALSE,21,59.9006583739,NA,"American English","VSH_Exp2","2016_Mar_24_1419",NA
"Recordings/puza.wav","no","p","z","u","yes","a","puza","Controls","bilabial","NoPatternControls",NA,NA,NA,NA,0,43,43,51,NA,NA,NA,NA,"Yes",0.888,128,FALSE,21,59.9006583739,NA,"American English","VSH_Exp2","2016_Mar_24_1419",NA
"Recordings/tadu.wav","no","t","d","a","yes","u","tadu","Controls","alveolar","StopControls",NA,NA,NA,NA,0,44,44,35,NA,NA,NA,NA,"Yes",0.837,128,FALSE,21,59.9006583739,NA,"American English","VSH_Exp2","2016_Mar_24_1419",NA
"Recordings/vidu.wav","yes","v","d","i","no","u","vidu","Controls","bilabial","VoicingControls",NA,NA,NA,NA,0,45,45,46,NA,NA,NA,NA,"Yes",0.72,128,FALSE,21,59.9006583739,NA,"American English","VSH_Exp2","2016_Mar_24_1419",NA
"Recordings/fasu.wav","no","f","s","a","no","u","fasu","Test","bilabial","NewConsTestStimuli",NA,NA,NA,NA,0,46,46,11,NA,NA,NA,NA,"Yes",0.869,128,FALSE,21,59.9006583739,NA,"American English","VSH_Exp2","2016_Mar_24_1419",NA
"Recordings/bibi.wav","yes","b","b","i","yes","i","bibi","Test","bilabial","NewWordTestStimuli",NA,NA,NA,NA,0,47,47,20,NA,NA,NA,NA,"Yes",0.654,128,FALSE,21,59.9006583739,NA,"American English","VSH_Exp2","2016_Mar_24_1419",NA
"Recordings/tuta.wav","no","t","t","u","yes","a","tuta","Test","alveolar","NewWordTestStimuli",NA,NA,NA,NA,0,48,48,23,NA,NA,NA,NA,"Yes",0.67,128,FALSE,21,59.9006583739,NA,"American English","VSH_Exp2","2016_Mar_24_1419",NA
"Recordings/fifa.wav","no","f","f","i","no","a","fifa","Test","bilabial","NewWordTestStimuli",NA,NA,NA,NA,0,49,49,22,NA,NA,NA,NA,"Yes",1.521,128,FALSE,21,59.9006583739,NA,"American English","VSH_Exp2","2016_Mar_24_1419",NA
"Recordings/tasa.wav","no","t","s","a","yes","a","tasa","Controls","alveolar","VoicingControls",NA,NA,NA,NA,0,50,50,45,NA,NA,NA,NA,"Yes",1.486,128,FALSE,21,59.9006583739,NA,"American English","VSH_Exp2","2016_Mar_24_1419",NA
"Recordings/suva.wav","no","s","v","u","no","a","suva","Controls","alveolar","StopControls",NA,NA,NA,NA,0,51,51,38,NA,NA,NA,NA,"Yes",0.787,128,FALSE,21,59.9006583739,NA,"American English","VSH_Exp2","2016_Mar_24_1419",NA
"Recordings/vupi.wav","yes","v","p","u","no","i","vupi","Controls","bilabial","NoPatternControls",NA,NA,NA,NA,0,52,52,53,NA,NA,NA,NA,"Yes",0.753,128,FALSE,21,59.9006583739,NA,"American English","VSH_Exp2","2016_Mar_24_1419",NA
"Recordings/suzu.wav","no","s","z","u","no","u","suzu","Controls","alveolar","StopControls",NA,NA,NA,NA,0,53,53,34,NA,NA,NA,NA,"Yes",0.753,128,FALSE,21,59.9006583739,NA,"American English","VSH_Exp2","2016_Mar_24_1419",NA
"Recordings/susu.wav","no","s","s","u","no","u","susu","Test","alveolar","NewWordTestStimuli",NA,NA,NA,NA,0,54,54,21,NA,NA,NA,NA,"Yes",1.938,128,FALSE,21,59.9006583739,NA,"American English","VSH_Exp2","2016_Mar_24_1419",NA
"Recordings/sapa.wav","no","s","p","a","no","a","sapa","Controls","alveolar","VoicingControls",NA,NA,NA,NA,0,55,55,44,NA,NA,NA,NA,"Yes",1.02,128,FALSE,21,59.9006583739,NA,"American English","VSH_Exp2","2016_Mar_24_1419",NA
"Recordings/viti.wav","yes","v","t","i","no","i","viti","Controls","bilabial","NoPatternControls",NA,NA,NA,NA,0,56,56,57,NA,NA,NA,NA,"Yes",1.052,128,FALSE,21,59.9006583739,NA,"American English","VSH_Exp2","2016_Mar_24_1419",NA
"Recordings/vibi.wav","yes","v","b","i","no","i","vibi","Controls","bilabial","VoicingControls",NA,NA,NA,NA,0,57,57,43,NA,NA,NA,NA,"Yes",0.737,128,FALSE,21,59.9006583739,NA,"American English","VSH_Exp2","2016_Mar_24_1419",NA
"Recordings/buda.wav","yes","b","d","u","yes","a","buda","Test","bilabial","OldTestStimuli",NA,NA,NA,NA,0,58,58,4,NA,NA,NA,NA,"Yes",0.837,128,FALSE,21,59.9006583739,NA,"American English","VSH_Exp2","2016_Mar_24_1419",NA
"Recordings/fatu.wav","no","f","t","a","no","u","fatu","Controls","bilabial","VoicingControls",NA,NA,NA,NA,0,59,59,49,NA,NA,NA,NA,"Yes",0.687,128,FALSE,21,59.9006583739,NA,"American English","VSH_Exp2","2016_Mar_24_1419",NA
