"SOUND","VOICING","SEGMENT","SEGMENT3","SEGMENT2","STOP","SEGMENT4","STIMULUS","GENERAL_TYPE","PLACE","TYPE","trials.thisRepN","trials.thisTrialN","trials.thisN","trials.thisIndex","trials_2.thisRepN","trials_2.thisTrialN","trials_2.thisN","trials_2.thisIndex","SpaceBar.keys","SpaceBar.rt","key_resp_2.keys","key_resp_2.rt","rating.response","rating.rt","participant","Gender","Age","frameRate","OtherLanguages","NativeLanguage","expName","date","X34"
NA,NA,NA,NA,NA,NA,NA,NA,NA,NA,NA,NA,NA,NA,NA,NA,NA,NA,NA,"space",7.47630500793,NA,NA,NA,NA,12,"M",22,59.8555237478,"German 1 yr, Spanish 3 yrs.","American English","VSH_Exp2","2016_Feb_23_1835",NA
"Recordings/titu.wav","no","t","t","i","yes","u","titu","Training","alveolar","TrainingItems",0,0,0,94,NA,NA,NA,NA,NA,NA,NA,NA,NA,NA,12,"M",22,59.8555237478,"German 1 yr, Spanish 3 yrs.","American English","VSH_Exp2","2016_Feb_23_1835",NA
"Recordings/tuta.wav","no","t","t","u","yes","a","tuta","Training","alveolar","TrainingItems",0,1,1,6,NA,NA,NA,NA,NA,NA,NA,NA,NA,NA,12,"M",22,59.8555237478,"German 1 yr, Spanish 3 yrs.","American English","VSH_Exp2","2016_Feb_23_1835",NA
"Recordings/viza.wav","yes","v","z","i","no","a","viza","Training","bilabial","TrainingItems",0,2,2,83,NA,NA,NA,NA,NA,NA,NA,NA,NA,NA,12,"M",22,59.8555237478,"German 1 yr, Spanish 3 yrs.","American English","VSH_Exp2","2016_Feb_23_1835",NA
"Recordings/zavi.wav","yes","z","v","a","no","i","zavi","Training","alveolar","TrainingItems",0,3,3,57,NA,NA,NA,NA,NA,NA,NA,NA,NA,NA,12,"M",22,59.8555237478,"German 1 yr, Spanish 3 yrs.","American English","VSH_Exp2","2016_Feb_23_1835",NA
"Recordings/dudu.wav","yes","d","d","u","yes","u","dudu","Training","alveolar","TrainingItems",0,4,4,2,NA,NA,NA,NA,NA,NA,NA,NA,NA,NA,12,"M",22,59.8555237478,"German 1 yr, Spanish 3 yrs.","American English","VSH_Exp2","2016_Feb_23_1835",NA
"Recordings/bidi.wav","yes","b","d","i","yes","i","bidi","Training","bilabial","TrainingItems",0,5,5,56,NA,NA,NA,NA,NA,NA,NA,NA,NA,NA,12,"M",22,59.8555237478,"German 1 yr, Spanish 3 yrs.","American English","VSH_Exp2","2016_Feb_23_1835",NA
"Recordings/sisa.wav","no","s","s","i","no","a","sisa","Training","alveolar","TrainingItems",0,6,6,21,NA,NA,NA,NA,NA,NA,NA,NA,NA,NA,12,"M",22,59.8555237478,"German 1 yr, Spanish 3 yrs.","American English","VSH_Exp2","2016_Feb_23_1835",NA
"Recordings/vuvi.wav","yes","v","v","u","no","i","vuvi","Training","bilabial","TrainingItems",0,7,7,82,NA,NA,NA,NA,NA,NA,NA,NA,NA,NA,12,"M",22,59.8555237478,"German 1 yr, Spanish 3 yrs.","American English","VSH_Exp2","2016_Feb_23_1835",NA
"Recordings/vazu.wav","yes","v","z","a","no","u","vazu","Training","bilabial","TrainingItems",0,8,8,40,NA,NA,NA,NA,NA,NA,NA,NA,NA,NA,12,"M",22,59.8555237478,"German 1 yr, Spanish 3 yrs.","American English","VSH_Exp2","2016_Feb_23_1835",NA
"Recordings/fifi.wav","no","f","f","i","no","i","fifi","Training","bilabial","TrainingItems",0,9,9,20,NA,NA,NA,NA,NA,NA,NA,NA,NA,NA,12,"M",22,59.8555237478,"German 1 yr, Spanish 3 yrs.","American English","VSH_Exp2","2016_Feb_23_1835",NA
"Recordings/patu.wav","no","p","t","a","yes","u","patu","Training","bilabial","TrainingItems",0,10,10,80,NA,NA,NA,NA,NA,NA,NA,NA,NA,NA,12,"M",22,59.8555237478,"German 1 yr, Spanish 3 yrs.","American English","VSH_Exp2","2016_Feb_23_1835",NA
"Recordings/buba.wav","yes","b","b","u","yes","a","buba","Training","bilabial","TrainingItems",0,11,11,67,NA,NA,NA,NA,NA,NA,NA,NA,NA,NA,12,"M",22,59.8555237478,"German 1 yr, Spanish 3 yrs.","American English","VSH_Exp2","2016_Feb_23_1835",NA
"Recordings/sasi.wav","no","s","s","a","no","i","sasi","Training","alveolar","TrainingItems",0,12,12,18,NA,NA,NA,NA,NA,NA,NA,NA,NA,NA,12,"M",22,59.8555237478,"German 1 yr, Spanish 3 yrs.","American English","VSH_Exp2","2016_Feb_23_1835",NA
"Recordings/tipi.wav","no","t","p","i","yes","i","tipi","Training","alveolar","TrainingItems",0,13,13,55,NA,NA,NA,NA,NA,NA,NA,NA,NA,NA,12,"M",22,59.8555237478,"German 1 yr, Spanish 3 yrs.","American English","VSH_Exp2","2016_Feb_23_1835",NA
"Recordings/puta.wav","no","p","t","u","yes","a","puta","Training","bilabial","TrainingItems",0,14,14,72,NA,NA,NA,NA,NA,NA,NA,NA,NA,NA,12,"M",22,59.8555237478,"German 1 yr, Spanish 3 yrs.","American English","VSH_Exp2","2016_Feb_23_1835",NA
"Recordings/fufi.wav","no","f","f","u","no","i","fufi","Training","bilabial","TrainingItems",0,15,15,5,NA,NA,NA,NA,NA,NA,NA,NA,NA,NA,12,"M",22,59.8555237478,"German 1 yr, Spanish 3 yrs.","American English","VSH_Exp2","2016_Feb_23_1835",NA
"Recordings/baba.wav","yes","b","b","a","yes","a","baba","Training","bilabial","TrainingItems",0,16,16,11,NA,NA,NA,NA,NA,NA,NA,NA,NA,NA,12,"M",22,59.8555237478,"German 1 yr, Spanish 3 yrs.","American English","VSH_Exp2","2016_Feb_23_1835",NA
"Recordings/susi.wav","no","s","s","u","no","i","susi","Training","alveolar","TrainingItems",0,17,17,44,NA,NA,NA,NA,NA,NA,NA,NA,NA,NA,12,"M",22,59.8555237478,"German 1 yr, Spanish 3 yrs.","American English","VSH_Exp2","2016_Feb_23_1835",NA
"Recordings/zaza.wav","yes","z","z","a","no","a","zaza","Training","alveolar","TrainingItems",0,18,18,32,NA,NA,NA,NA,NA,NA,NA,NA,NA,NA,12,"M",22,59.8555237478,"German 1 yr, Spanish 3 yrs.","American English","VSH_Exp2","2016_Feb_23_1835",NA
"Recordings/budi.wav","yes","b","d","u","yes","i","budi","Training","bilabial","TrainingItems",0,19,19,61,NA,NA,NA,NA,NA,NA,NA,NA,NA,NA,12,"M",22,59.8555237478,"German 1 yr, Spanish 3 yrs.","American English","VSH_Exp2","2016_Feb_23_1835",NA
"Recordings/pipa.wav","no","p","p","i","yes","a","pipa","Training","bilabial","TrainingItems",0,20,20,26,NA,NA,NA,NA,NA,NA,NA,NA,NA,NA,12,"M",22,59.8555237478,"German 1 yr, Spanish 3 yrs.","American English","VSH_Exp2","2016_Feb_23_1835",NA
"Recordings/ziva.wav","yes","z","v","i","no","a","ziva","Training","alveolar","TrainingItems",0,21,21,89,NA,NA,NA,NA,NA,NA,NA,NA,NA,NA,12,"M",22,59.8555237478,"German 1 yr, Spanish 3 yrs.","American English","VSH_Exp2","2016_Feb_23_1835",NA
"Recordings/dibu.wav","yes","d","b","i","yes","u","dibu","Training","alveolar","TrainingItems",0,22,22,91,NA,NA,NA,NA,NA,NA,NA,NA,NA,NA,12,"M",22,59.8555237478,"German 1 yr, Spanish 3 yrs.","American English","VSH_Exp2","2016_Feb_23_1835",NA
"Recordings/titi.wav","no","t","t","i","yes","i","titi","Training","alveolar","TrainingItems",0,23,23,58,NA,NA,NA,NA,NA,NA,NA,NA,NA,NA,12,"M",22,59.8555237478,"German 1 yr, Spanish 3 yrs.","American English","VSH_Exp2","2016_Feb_23_1835",NA
"Recordings/vizu.wav","yes","v","z","i","no","u","vizu","Training","bilabial","TrainingItems",0,24,24,88,NA,NA,NA,NA,NA,NA,NA,NA,NA,NA,12,"M",22,59.8555237478,"German 1 yr, Spanish 3 yrs.","American English","VSH_Exp2","2016_Feb_23_1835",NA
"Recordings/zuvu.wav","yes","z","v","u","no","u","zuvu","Training","alveolar","TrainingItems",0,25,25,95,NA,NA,NA,NA,NA,NA,NA,NA,NA,NA,12,"M",22,59.8555237478,"German 1 yr, Spanish 3 yrs.","American English","VSH_Exp2","2016_Feb_23_1835",NA
"Recordings/didu.wav","yes","d","d","i","yes","u","didu","Training","alveolar","TrainingItems",0,26,26,66,NA,NA,NA,NA,NA,NA,NA,NA,NA,NA,12,"M",22,59.8555237478,"German 1 yr, Spanish 3 yrs.","American English","VSH_Exp2","2016_Feb_23_1835",NA
"Recordings/zivu.wav","yes","z","v","i","no","u","zivu","Training","alveolar","TrainingItems",0,27,27,73,NA,NA,NA,NA,NA,NA,NA,NA,NA,NA,12,"M",22,59.8555237478,"German 1 yr, Spanish 3 yrs.","American English","VSH_Exp2","2016_Feb_23_1835",NA
"Recordings/dadu.wav","yes","d","d","a","yes","u","dadu","Training","alveolar","TrainingItems",0,28,28,34,NA,NA,NA,NA,NA,NA,NA,NA,NA,NA,12,"M",22,59.8555237478,"German 1 yr, Spanish 3 yrs.","American English","VSH_Exp2","2016_Feb_23_1835",NA
"Recordings/dabu.wav","yes","d","b","a","yes","u","dabu","Training","alveolar","TrainingItems",0,29,29,4,NA,NA,NA,NA,NA,NA,NA,NA,NA,NA,12,"M",22,59.8555237478,"German 1 yr, Spanish 3 yrs.","American English","VSH_Exp2","2016_Feb_23_1835",NA
"Recordings/dada.wav","yes","d","d","a","yes","a","dada","Training","alveolar","TrainingItems",0,30,30,7,NA,NA,NA,NA,NA,NA,NA,NA,NA,NA,12,"M",22,59.8555237478,"German 1 yr, Spanish 3 yrs.","American English","VSH_Exp2","2016_Feb_23_1835",NA
"Recordings/sasa.wav","no","s","s","a","no","a","sasa","Training","alveolar","TrainingItems",0,31,31,41,NA,NA,NA,NA,NA,NA,NA,NA,NA,NA,12,"M",22,59.8555237478,"German 1 yr, Spanish 3 yrs.","American English","VSH_Exp2","2016_Feb_23_1835",NA
"Recordings/zazu.wav","yes","z","z","a","no","u","zazu","Training","alveolar","TrainingItems",0,32,32,30,NA,NA,NA,NA,NA,NA,NA,NA,NA,NA,12,"M",22,59.8555237478,"German 1 yr, Spanish 3 yrs.","American English","VSH_Exp2","2016_Feb_23_1835",NA
"Recordings/susu.wav","no","s","s","u","no","u","susu","Training","alveolar","TrainingItems",0,33,33,45,NA,NA,NA,NA,NA,NA,NA,NA,NA,NA,12,"M",22,59.8555237478,"German 1 yr, Spanish 3 yrs.","American English","VSH_Exp2","2016_Feb_23_1835",NA
"Recordings/tita.wav","no","t","t","i","yes","a","tita","Training","alveolar","TrainingItems",0,34,34,49,NA,NA,NA,NA,NA,NA,NA,NA,NA,NA,12,"M",22,59.8555237478,"German 1 yr, Spanish 3 yrs.","American English","VSH_Exp2","2016_Feb_23_1835",NA
"Recordings/vizi.wav","yes","v","z","i","no","i","vizi","Training","bilabial","TrainingItems",0,35,35,50,NA,NA,NA,NA,NA,NA,NA,NA,NA,NA,12,"M",22,59.8555237478,"German 1 yr, Spanish 3 yrs.","American English","VSH_Exp2","2016_Feb_23_1835",NA
"Recordings/tutu.wav","no","t","t","u","yes","u","tutu","Training","alveolar","TrainingItems",0,36,36,25,NA,NA,NA,NA,NA,NA,NA,NA,NA,NA,12,"M",22,59.8555237478,"German 1 yr, Spanish 3 yrs.","American English","VSH_Exp2","2016_Feb_23_1835",NA
"Recordings/vivi.wav","yes","v","v","i","no","i","vivi","Training","bilabial","TrainingItems",0,37,37,53,NA,NA,NA,NA,NA,NA,NA,NA,NA,NA,12,"M",22,59.8555237478,"German 1 yr, Spanish 3 yrs.","American English","VSH_Exp2","2016_Feb_23_1835",NA
"Recordings/viva.wav","yes","v","v","i","no","a","viva","Training","bilabial","TrainingItems",0,38,38,64,NA,NA,NA,NA,NA,NA,NA,NA,NA,NA,12,"M",22,59.8555237478,"German 1 yr, Spanish 3 yrs.","American English","VSH_Exp2","2016_Feb_23_1835",NA
"Recordings/daba.wav","yes","d","b","a","yes","a","daba","Training","alveolar","TrainingItems",0,39,39,43,NA,NA,NA,NA,NA,NA,NA,NA,NA,NA,12,"M",22,59.8555237478,"German 1 yr, Spanish 3 yrs.","American English","VSH_Exp2","2016_Feb_23_1835",NA
"Recordings/buda.wav","yes","b","d","u","yes","a","buda","Training","bilabial","TrainingItems",0,40,40,23,NA,NA,NA,NA,NA,NA,NA,NA,NA,NA,12,"M",22,59.8555237478,"German 1 yr, Spanish 3 yrs.","American English","VSH_Exp2","2016_Feb_23_1835",NA
"Recordings/vaza.wav","yes","v","z","a","no","a","vaza","Training","bilabial","TrainingItems",0,41,41,98,NA,NA,NA,NA,NA,NA,NA,NA,NA,NA,12,"M",22,59.8555237478,"German 1 yr, Spanish 3 yrs.","American English","VSH_Exp2","2016_Feb_23_1835",NA
"Recordings/zava.wav","yes","z","v","a","no","a","zava","Training","alveolar","TrainingItems",0,42,42,47,NA,NA,NA,NA,NA,NA,NA,NA,NA,NA,12,"M",22,59.8555237478,"German 1 yr, Spanish 3 yrs.","American English","VSH_Exp2","2016_Feb_23_1835",NA
"Recordings/sasu.wav","no","s","s","a","no","u","sasu","Training","alveolar","TrainingItems",0,43,43,90,NA,NA,NA,NA,NA,NA,NA,NA,NA,NA,12,"M",22,59.8555237478,"German 1 yr, Spanish 3 yrs.","American English","VSH_Exp2","2016_Feb_23_1835",NA
"Recordings/dubu.wav","yes","d","b","u","yes","u","dubu","Training","alveolar","TrainingItems",0,44,44,42,NA,NA,NA,NA,NA,NA,NA,NA,NA,NA,12,"M",22,59.8555237478,"German 1 yr, Spanish 3 yrs.","American English","VSH_Exp2","2016_Feb_23_1835",NA
"Recordings/babu.wav","yes","b","b","a","yes","u","babu","Training","bilabial","TrainingItems",0,45,45,14,NA,NA,NA,NA,NA,NA,NA,NA,NA,NA,12,"M",22,59.8555237478,"German 1 yr, Spanish 3 yrs.","American English","VSH_Exp2","2016_Feb_23_1835",NA
"Recordings/vavu.wav","yes","v","v","a","no","u","vavu","Training","bilabial","TrainingItems",0,46,46,97,NA,NA,NA,NA,NA,NA,NA,NA,NA,NA,12,"M",22,59.8555237478,"German 1 yr, Spanish 3 yrs.","American English","VSH_Exp2","2016_Feb_23_1835",NA
"Recordings/pita.wav","no","p","t","i","yes","a","pita","Training","bilabial","TrainingItems",0,47,47,51,NA,NA,NA,NA,NA,NA,NA,NA,NA,NA,12,"M",22,59.8555237478,"German 1 yr, Spanish 3 yrs.","American English","VSH_Exp2","2016_Feb_23_1835",NA
"Recordings/bida.wav","yes","b","d","i","yes","a","bida","Training","bilabial","TrainingItems",0,48,48,75,NA,NA,NA,NA,NA,NA,NA,NA,NA,NA,12,"M",22,59.8555237478,"German 1 yr, Spanish 3 yrs.","American English","VSH_Exp2","2016_Feb_23_1835",NA
"Recordings/bubi.wav","yes","b","b","u","yes","i","bubi","Training","bilabial","TrainingItems",0,49,49,71,NA,NA,NA,NA,NA,NA,NA,NA,NA,NA,12,"M",22,59.8555237478,"German 1 yr, Spanish 3 yrs.","American English","VSH_Exp2","2016_Feb_23_1835",NA
"Recordings/bubu.wav","yes","b","b","u","yes","u","bubu","Training","bilabial","TrainingItems",0,50,50,29,NA,NA,NA,NA,NA,NA,NA,NA,NA,NA,12,"M",22,59.8555237478,"German 1 yr, Spanish 3 yrs.","American English","VSH_Exp2","2016_Feb_23_1835",NA
"Recordings/vuza.wav","yes","v","z","u","no","a","vuza","Training","bilabial","TrainingItems",0,51,51,28,NA,NA,NA,NA,NA,NA,NA,NA,NA,NA,12,"M",22,59.8555237478,"German 1 yr, Spanish 3 yrs.","American English","VSH_Exp2","2016_Feb_23_1835",NA
"Recordings/zuzu.wav","yes","z","z","u","no","u","zuzu","Training","alveolar","TrainingItems",0,52,52,93,NA,NA,NA,NA,NA,NA,NA,NA,NA,NA,12,"M",22,59.8555237478,"German 1 yr, Spanish 3 yrs.","American English","VSH_Exp2","2016_Feb_23_1835",NA
"Recordings/vazi.wav","yes","v","z","a","no","i","vazi","Training","bilabial","TrainingItems",0,53,53,69,NA,NA,NA,NA,NA,NA,NA,NA,NA,NA,12,"M",22,59.8555237478,"German 1 yr, Spanish 3 yrs.","American English","VSH_Exp2","2016_Feb_23_1835",NA
"Recordings/papa.wav","no","p","p","a","yes","a","papa","Training","bilabial","TrainingItems",0,54,54,8,NA,NA,NA,NA,NA,NA,NA,NA,NA,NA,12,"M",22,59.8555237478,"German 1 yr, Spanish 3 yrs.","American English","VSH_Exp2","2016_Feb_23_1835",NA
"Recordings/fufa.wav","no","f","f","u","no","a","fufa","Training","bilabial","TrainingItems",0,55,55,48,NA,NA,NA,NA,NA,NA,NA,NA,NA,NA,12,"M",22,59.8555237478,"German 1 yr, Spanish 3 yrs.","American English","VSH_Exp2","2016_Feb_23_1835",NA
"Recordings/tatu.wav","no","t","t","a","yes","u","tatu","Training","alveolar","TrainingItems",0,56,56,35,NA,NA,NA,NA,NA,NA,NA,NA,NA,NA,12,"M",22,59.8555237478,"German 1 yr, Spanish 3 yrs.","American English","VSH_Exp2","2016_Feb_23_1835",NA
"Recordings/sisi.wav","no","s","s","i","no","i","sisi","Training","alveolar","TrainingItems",0,57,57,87,NA,NA,NA,NA,NA,NA,NA,NA,NA,NA,12,"M",22,59.8555237478,"German 1 yr, Spanish 3 yrs.","American English","VSH_Exp2","2016_Feb_23_1835",NA
"Recordings/tata.wav","no","t","t","a","yes","a","tata","Training","alveolar","TrainingItems",0,58,58,19,NA,NA,NA,NA,NA,NA,NA,NA,NA,NA,12,"M",22,59.8555237478,"German 1 yr, Spanish 3 yrs.","American English","VSH_Exp2","2016_Feb_23_1835",NA
"Recordings/badu.wav","yes","b","d","a","yes","u","badu","Training","bilabial","TrainingItems",0,59,59,24,NA,NA,NA,NA,NA,NA,NA,NA,NA,NA,12,"M",22,59.8555237478,"German 1 yr, Spanish 3 yrs.","American English","VSH_Exp2","2016_Feb_23_1835",NA
"Recordings/dibi.wav","yes","d","b","i","yes","i","dibi","Training","alveolar","TrainingItems",0,60,60,36,NA,NA,NA,NA,NA,NA,NA,NA,NA,NA,12,"M",22,59.8555237478,"German 1 yr, Spanish 3 yrs.","American English","VSH_Exp2","2016_Feb_23_1835",NA
"Recordings/budu.wav","yes","b","d","u","yes","u","budu","Training","bilabial","TrainingItems",0,61,61,60,NA,NA,NA,NA,NA,NA,NA,NA,NA,NA,12,"M",22,59.8555237478,"German 1 yr, Spanish 3 yrs.","American English","VSH_Exp2","2016_Feb_23_1835",NA
"Recordings/dadi.wav","yes","d","d","a","yes","i","dadi","Training","alveolar","TrainingItems",0,62,62,9,NA,NA,NA,NA,NA,NA,NA,NA,NA,NA,12,"M",22,59.8555237478,"German 1 yr, Spanish 3 yrs.","American English","VSH_Exp2","2016_Feb_23_1835",NA
"Recordings/bibu.wav","yes","b","b","i","yes","u","bibu","Training","bilabial","TrainingItems",0,63,63,22,NA,NA,NA,NA,NA,NA,NA,NA,NA,NA,12,"M",22,59.8555237478,"German 1 yr, Spanish 3 yrs.","American English","VSH_Exp2","2016_Feb_23_1835",NA
"Recordings/pata.wav","no","p","t","a","yes","a","pata","Training","bilabial","TrainingItems",0,64,64,54,NA,NA,NA,NA,NA,NA,NA,NA,NA,NA,12,"M",22,59.8555237478,"German 1 yr, Spanish 3 yrs.","American English","VSH_Exp2","2016_Feb_23_1835",NA
"Recordings/papi.wav","no","p","p","a","yes","i","papi","Training","bilabial","TrainingItems",0,65,65,10,NA,NA,NA,NA,NA,NA,NA,NA,NA,NA,12,"M",22,59.8555237478,"German 1 yr, Spanish 3 yrs.","American English","VSH_Exp2","2016_Feb_23_1835",NA
"Recordings/vuzi.wav","yes","v","z","u","no","i","vuzi","Training","bilabial","TrainingItems",0,66,66,76,NA,NA,NA,NA,NA,NA,NA,NA,NA,NA,12,"M",22,59.8555237478,"German 1 yr, Spanish 3 yrs.","American English","VSH_Exp2","2016_Feb_23_1835",NA
"Recordings/pupi.wav","no","p","p","u","yes","i","pupi","Training","bilabial","TrainingItems",0,67,67,59,NA,NA,NA,NA,NA,NA,NA,NA,NA,NA,12,"M",22,59.8555237478,"German 1 yr, Spanish 3 yrs.","American English","VSH_Exp2","2016_Feb_23_1835",NA
"Recordings/fafu.wav","no","f","f","a","no","u","fafu","Training","bilabial","TrainingItems",0,68,68,16,NA,NA,NA,NA,NA,NA,NA,NA,NA,NA,12,"M",22,59.8555237478,"German 1 yr, Spanish 3 yrs.","American English","VSH_Exp2","2016_Feb_23_1835",NA
"Recordings/fafi.wav","no","f","f","a","no","i","fafi","Training","bilabial","TrainingItems",0,69,69,77,NA,NA,NA,NA,NA,NA,NA,NA,NA,NA,12,"M",22,59.8555237478,"German 1 yr, Spanish 3 yrs.","American English","VSH_Exp2","2016_Feb_23_1835",NA
"Recordings/tupa.wav","no","t","p","u","yes","a","tupa","Training","alveolar","TrainingItems",0,70,70,62,NA,NA,NA,NA,NA,NA,NA,NA,NA,NA,12,"M",22,59.8555237478,"German 1 yr, Spanish 3 yrs.","American English","VSH_Exp2","2016_Feb_23_1835",NA
"Recordings/susa.wav","no","s","s","u","no","a","susa","Training","alveolar","TrainingItems",0,71,71,3,NA,NA,NA,NA,NA,NA,NA,NA,NA,NA,12,"M",22,59.8555237478,"German 1 yr, Spanish 3 yrs.","American English","VSH_Exp2","2016_Feb_23_1835",NA
"Recordings/zuvi.wav","yes","z","v","u","no","i","zuvi","Training","alveolar","TrainingItems",0,72,72,79,NA,NA,NA,NA,NA,NA,NA,NA,NA,NA,12,"M",22,59.8555237478,"German 1 yr, Spanish 3 yrs.","American English","VSH_Exp2","2016_Feb_23_1835",NA
"Recordings/tipa.wav","no","t","p","i","yes","a","tipa","Training","alveolar","TrainingItems",0,73,73,96,NA,NA,NA,NA,NA,NA,NA,NA,NA,NA,12,"M",22,59.8555237478,"German 1 yr, Spanish 3 yrs.","American English","VSH_Exp2","2016_Feb_23_1835",NA
"Recordings/tupi.wav","no","t","p","u","yes","i","tupi","Training","alveolar","TrainingItems",0,74,74,86,NA,NA,NA,NA,NA,NA,NA,NA,NA,NA,12,"M",22,59.8555237478,"German 1 yr, Spanish 3 yrs.","American English","VSH_Exp2","2016_Feb_23_1835",NA
"Recordings/bibi.wav","yes","b","b","i","yes","i","bibi","Training","bilabial","TrainingItems",0,75,75,12,NA,NA,NA,NA,NA,NA,NA,NA,NA,NA,12,"M",22,59.8555237478,"German 1 yr, Spanish 3 yrs.","American English","VSH_Exp2","2016_Feb_23_1835",NA
"Recordings/tupu.wav","no","t","p","u","yes","u","tupu","Training","alveolar","TrainingItems",0,76,76,38,NA,NA,NA,NA,NA,NA,NA,NA,NA,NA,12,"M",22,59.8555237478,"German 1 yr, Spanish 3 yrs.","American English","VSH_Exp2","2016_Feb_23_1835",NA
"Recordings/tapu.wav","no","t","p","a","yes","u","tapu","Training","alveolar","TrainingItems",0,77,77,52,NA,NA,NA,NA,NA,NA,NA,NA,NA,NA,12,"M",22,59.8555237478,"German 1 yr, Spanish 3 yrs.","American English","VSH_Exp2","2016_Feb_23_1835",NA
"Recordings/vuva.wav","yes","v","v","u","no","a","vuva","Training","bilabial","TrainingItems",0,78,78,39,NA,NA,NA,NA,NA,NA,NA,NA,NA,NA,12,"M",22,59.8555237478,"German 1 yr, Spanish 3 yrs.","American English","VSH_Exp2","2016_Feb_23_1835",NA
"Recordings/fifa.wav","no","f","f","i","no","a","fifa","Training","bilabial","TrainingItems",0,79,79,84,NA,NA,NA,NA,NA,NA,NA,NA,NA,NA,12,"M",22,59.8555237478,"German 1 yr, Spanish 3 yrs.","American English","VSH_Exp2","2016_Feb_23_1835",NA
"Recordings/dabi.wav","yes","d","b","a","yes","i","dabi","Training","alveolar","TrainingItems",0,80,80,99,NA,NA,NA,NA,NA,NA,NA,NA,NA,NA,12,"M",22,59.8555237478,"German 1 yr, Spanish 3 yrs.","American English","VSH_Exp2","2016_Feb_23_1835",NA
"Recordings/tipu.wav","no","t","p","i","yes","u","tipu","Training","alveolar","TrainingItems",0,81,81,1,NA,NA,NA,NA,NA,NA,NA,NA,NA,NA,12,"M",22,59.8555237478,"German 1 yr, Spanish 3 yrs.","American English","VSH_Exp2","2016_Feb_23_1835",NA
"Recordings/fifu.wav","no","f","f","i","no","u","fifu","Training","bilabial","TrainingItems",0,82,82,68,NA,NA,NA,NA,NA,NA,NA,NA,NA,NA,12,"M",22,59.8555237478,"German 1 yr, Spanish 3 yrs.","American English","VSH_Exp2","2016_Feb_23_1835",NA
"Recordings/pupu.wav","no","p","p","u","yes","u","pupu","Training","bilabial","TrainingItems",0,83,83,33,NA,NA,NA,NA,NA,NA,NA,NA,NA,NA,12,"M",22,59.8555237478,"German 1 yr, Spanish 3 yrs.","American English","VSH_Exp2","2016_Feb_23_1835",NA
"Recordings/zivi.wav","yes","z","v","i","no","i","zivi","Training","alveolar","TrainingItems",0,84,84,17,NA,NA,NA,NA,NA,NA,NA,NA,NA,NA,12,"M",22,59.8555237478,"German 1 yr, Spanish 3 yrs.","American English","VSH_Exp2","2016_Feb_23_1835",NA
"Recordings/badi.wav","yes","b","d","a","yes","i","badi","Training","bilabial","TrainingItems",0,85,85,65,NA,NA,NA,NA,NA,NA,NA,NA,NA,NA,12,"M",22,59.8555237478,"German 1 yr, Spanish 3 yrs.","American English","VSH_Exp2","2016_Feb_23_1835",NA
"Recordings/babi.wav","yes","b","b","a","yes","i","babi","Training","bilabial","TrainingItems",0,86,86,81,NA,NA,NA,NA,NA,NA,NA,NA,NA,NA,12,"M",22,59.8555237478,"German 1 yr, Spanish 3 yrs.","American English","VSH_Exp2","2016_Feb_23_1835",NA
"Recordings/pati.wav","no","p","t","a","yes","i","pati","Training","bilabial","TrainingItems",0,87,87,92,NA,NA,NA,NA,NA,NA,NA,NA,NA,NA,12,"M",22,59.8555237478,"German 1 yr, Spanish 3 yrs.","American English","VSH_Exp2","2016_Feb_23_1835",NA
"Recordings/sisu.wav","no","s","s","i","no","u","sisu","Training","alveolar","TrainingItems",0,88,88,78,NA,NA,NA,NA,NA,NA,NA,NA,NA,NA,12,"M",22,59.8555237478,"German 1 yr, Spanish 3 yrs.","American English","VSH_Exp2","2016_Feb_23_1835",NA
"Recordings/tapa.wav","no","t","p","a","yes","a","tapa","Training","alveolar","TrainingItems",0,89,89,27,NA,NA,NA,NA,NA,NA,NA,NA,NA,NA,12,"M",22,59.8555237478,"German 1 yr, Spanish 3 yrs.","American English","VSH_Exp2","2016_Feb_23_1835",NA
"Recordings/duba.wav","yes","d","b","u","yes","a","duba","Training","alveolar","TrainingItems",0,90,90,85,NA,NA,NA,NA,NA,NA,NA,NA,NA,NA,12,"M",22,59.8555237478,"German 1 yr, Spanish 3 yrs.","American English","VSH_Exp2","2016_Feb_23_1835",NA
"Recordings/zazi.wav","yes","z","z","a","no","i","zazi","Training","alveolar","TrainingItems",0,91,91,0,NA,NA,NA,NA,NA,NA,NA,NA,NA,NA,12,"M",22,59.8555237478,"German 1 yr, Spanish 3 yrs.","American English","VSH_Exp2","2016_Feb_23_1835",NA
"Recordings/fufu.wav","no","f","f","u","no","u","fufu","Training","bilabial","TrainingItems",0,92,92,15,NA,NA,NA,NA,NA,NA,NA,NA,NA,NA,12,"M",22,59.8555237478,"German 1 yr, Spanish 3 yrs.","American English","VSH_Exp2","2016_Feb_23_1835",NA
"Recordings/zuza.wav","yes","z","z","u","no","a","zuza","Training","alveolar","TrainingItems",0,93,93,46,NA,NA,NA,NA,NA,NA,NA,NA,NA,NA,12,"M",22,59.8555237478,"German 1 yr, Spanish 3 yrs.","American English","VSH_Exp2","2016_Feb_23_1835",NA
"Recordings/vuvu.wav","yes","v","v","u","no","u","vuvu","Training","bilabial","TrainingItems",0,94,94,13,NA,NA,NA,NA,NA,NA,NA,NA,NA,NA,12,"M",22,59.8555237478,"German 1 yr, Spanish 3 yrs.","American English","VSH_Exp2","2016_Feb_23_1835",NA
"Recordings/dida.wav","yes","d","d","i","yes","a","dida","Training","alveolar","TrainingItems",0,95,95,31,NA,NA,NA,NA,NA,NA,NA,NA,NA,NA,12,"M",22,59.8555237478,"German 1 yr, Spanish 3 yrs.","American English","VSH_Exp2","2016_Feb_23_1835",NA
"Recordings/bidu.wav","yes","b","d","i","yes","u","bidu","Training","bilabial","TrainingItems",0,96,96,74,NA,NA,NA,NA,NA,NA,NA,NA,NA,NA,12,"M",22,59.8555237478,"German 1 yr, Spanish 3 yrs.","American English","VSH_Exp2","2016_Feb_23_1835",NA
"Recordings/pupa.wav","no","p","p","u","yes","a","pupa","Training","bilabial","TrainingItems",0,97,97,70,NA,NA,NA,NA,NA,NA,NA,NA,NA,NA,12,"M",22,59.8555237478,"German 1 yr, Spanish 3 yrs.","American English","VSH_Exp2","2016_Feb_23_1835",NA
"Recordings/zuva.wav","yes","z","v","u","no","a","zuva","Training","alveolar","TrainingItems",0,98,98,37,NA,NA,NA,NA,NA,NA,NA,NA,NA,NA,12,"M",22,59.8555237478,"German 1 yr, Spanish 3 yrs.","American English","VSH_Exp2","2016_Feb_23_1835",NA
"Recordings/fafa.wav","no","f","f","a","no","a","fafa","Training","bilabial","TrainingItems",0,99,99,63,NA,NA,NA,NA,NA,NA,NA,NA,NA,NA,12,"M",22,59.8555237478,"German 1 yr, Spanish 3 yrs.","American English","VSH_Exp2","2016_Feb_23_1835",NA
"Recordings/vuza.wav","yes","v","z","u","no","a","vuza","Training","bilabial","TrainingItems",1,0,100,28,NA,NA,NA,NA,NA,NA,NA,NA,NA,NA,12,"M",22,59.8555237478,"German 1 yr, Spanish 3 yrs.","American English","VSH_Exp2","2016_Feb_23_1835",NA
"Recordings/zazu.wav","yes","z","z","a","no","u","zazu","Training","alveolar","TrainingItems",1,1,101,30,NA,NA,NA,NA,NA,NA,NA,NA,NA,NA,12,"M",22,59.8555237478,"German 1 yr, Spanish 3 yrs.","American English","VSH_Exp2","2016_Feb_23_1835",NA
"Recordings/pupi.wav","no","p","p","u","yes","i","pupi","Training","bilabial","TrainingItems",1,2,102,59,NA,NA,NA,NA,NA,NA,NA,NA,NA,NA,12,"M",22,59.8555237478,"German 1 yr, Spanish 3 yrs.","American English","VSH_Exp2","2016_Feb_23_1835",NA
"Recordings/tutu.wav","no","t","t","u","yes","u","tutu","Training","alveolar","TrainingItems",1,3,103,25,NA,NA,NA,NA,NA,NA,NA,NA,NA,NA,12,"M",22,59.8555237478,"German 1 yr, Spanish 3 yrs.","American English","VSH_Exp2","2016_Feb_23_1835",NA
"Recordings/bibu.wav","yes","b","b","i","yes","u","bibu","Training","bilabial","TrainingItems",1,4,104,22,NA,NA,NA,NA,NA,NA,NA,NA,NA,NA,12,"M",22,59.8555237478,"German 1 yr, Spanish 3 yrs.","American English","VSH_Exp2","2016_Feb_23_1835",NA
"Recordings/dada.wav","yes","d","d","a","yes","a","dada","Training","alveolar","TrainingItems",1,5,105,7,NA,NA,NA,NA,NA,NA,NA,NA,NA,NA,12,"M",22,59.8555237478,"German 1 yr, Spanish 3 yrs.","American English","VSH_Exp2","2016_Feb_23_1835",NA
"Recordings/tata.wav","no","t","t","a","yes","a","tata","Training","alveolar","TrainingItems",1,6,106,19,NA,NA,NA,NA,NA,NA,NA,NA,NA,NA,12,"M",22,59.8555237478,"German 1 yr, Spanish 3 yrs.","American English","VSH_Exp2","2016_Feb_23_1835",NA
"Recordings/didu.wav","yes","d","d","i","yes","u","didu","Training","alveolar","TrainingItems",1,7,107,66,NA,NA,NA,NA,NA,NA,NA,NA,NA,NA,12,"M",22,59.8555237478,"German 1 yr, Spanish 3 yrs.","American English","VSH_Exp2","2016_Feb_23_1835",NA
"Recordings/zava.wav","yes","z","v","a","no","a","zava","Training","alveolar","TrainingItems",1,8,108,47,NA,NA,NA,NA,NA,NA,NA,NA,NA,NA,12,"M",22,59.8555237478,"German 1 yr, Spanish 3 yrs.","American English","VSH_Exp2","2016_Feb_23_1835",NA
"Recordings/pupa.wav","no","p","p","u","yes","a","pupa","Training","bilabial","TrainingItems",1,9,109,70,NA,NA,NA,NA,NA,NA,NA,NA,NA,NA,12,"M",22,59.8555237478,"German 1 yr, Spanish 3 yrs.","American English","VSH_Exp2","2016_Feb_23_1835",NA
"Recordings/ziva.wav","yes","z","v","i","no","a","ziva","Training","alveolar","TrainingItems",1,10,110,89,NA,NA,NA,NA,NA,NA,NA,NA,NA,NA,12,"M",22,59.8555237478,"German 1 yr, Spanish 3 yrs.","American English","VSH_Exp2","2016_Feb_23_1835",NA
"Recordings/vizi.wav","yes","v","z","i","no","i","vizi","Training","bilabial","TrainingItems",1,11,111,50,NA,NA,NA,NA,NA,NA,NA,NA,NA,NA,12,"M",22,59.8555237478,"German 1 yr, Spanish 3 yrs.","American English","VSH_Exp2","2016_Feb_23_1835",NA
"Recordings/tipi.wav","no","t","p","i","yes","i","tipi","Training","alveolar","TrainingItems",1,12,112,55,NA,NA,NA,NA,NA,NA,NA,NA,NA,NA,12,"M",22,59.8555237478,"German 1 yr, Spanish 3 yrs.","American English","VSH_Exp2","2016_Feb_23_1835",NA
"Recordings/dudu.wav","yes","d","d","u","yes","u","dudu","Training","alveolar","TrainingItems",1,13,113,2,NA,NA,NA,NA,NA,NA,NA,NA,NA,NA,12,"M",22,59.8555237478,"German 1 yr, Spanish 3 yrs.","American English","VSH_Exp2","2016_Feb_23_1835",NA
"Recordings/tapa.wav","no","t","p","a","yes","a","tapa","Training","alveolar","TrainingItems",1,14,114,27,NA,NA,NA,NA,NA,NA,NA,NA,NA,NA,12,"M",22,59.8555237478,"German 1 yr, Spanish 3 yrs.","American English","VSH_Exp2","2016_Feb_23_1835",NA
"Recordings/susi.wav","no","s","s","u","no","i","susi","Training","alveolar","TrainingItems",1,15,115,44,NA,NA,NA,NA,NA,NA,NA,NA,NA,NA,12,"M",22,59.8555237478,"German 1 yr, Spanish 3 yrs.","American English","VSH_Exp2","2016_Feb_23_1835",NA
"Recordings/zuvu.wav","yes","z","v","u","no","u","zuvu","Training","alveolar","TrainingItems",1,16,116,95,NA,NA,NA,NA,NA,NA,NA,NA,NA,NA,12,"M",22,59.8555237478,"German 1 yr, Spanish 3 yrs.","American English","VSH_Exp2","2016_Feb_23_1835",NA
"Recordings/fafa.wav","no","f","f","a","no","a","fafa","Training","bilabial","TrainingItems",1,17,117,63,NA,NA,NA,NA,NA,NA,NA,NA,NA,NA,12,"M",22,59.8555237478,"German 1 yr, Spanish 3 yrs.","American English","VSH_Exp2","2016_Feb_23_1835",NA
"Recordings/buba.wav","yes","b","b","u","yes","a","buba","Training","bilabial","TrainingItems",1,18,118,67,NA,NA,NA,NA,NA,NA,NA,NA,NA,NA,12,"M",22,59.8555237478,"German 1 yr, Spanish 3 yrs.","American English","VSH_Exp2","2016_Feb_23_1835",NA
"Recordings/fufi.wav","no","f","f","u","no","i","fufi","Training","bilabial","TrainingItems",1,19,119,5,NA,NA,NA,NA,NA,NA,NA,NA,NA,NA,12,"M",22,59.8555237478,"German 1 yr, Spanish 3 yrs.","American English","VSH_Exp2","2016_Feb_23_1835",NA
"Recordings/baba.wav","yes","b","b","a","yes","a","baba","Training","bilabial","TrainingItems",1,20,120,11,NA,NA,NA,NA,NA,NA,NA,NA,NA,NA,12,"M",22,59.8555237478,"German 1 yr, Spanish 3 yrs.","American English","VSH_Exp2","2016_Feb_23_1835",NA
"Recordings/sisu.wav","no","s","s","i","no","u","sisu","Training","alveolar","TrainingItems",1,21,121,78,NA,NA,NA,NA,NA,NA,NA,NA,NA,NA,12,"M",22,59.8555237478,"German 1 yr, Spanish 3 yrs.","American English","VSH_Exp2","2016_Feb_23_1835",NA
"Recordings/puta.wav","no","p","t","u","yes","a","puta","Training","bilabial","TrainingItems",1,22,122,72,NA,NA,NA,NA,NA,NA,NA,NA,NA,NA,12,"M",22,59.8555237478,"German 1 yr, Spanish 3 yrs.","American English","VSH_Exp2","2016_Feb_23_1835",NA
"Recordings/patu.wav","no","p","t","a","yes","u","patu","Training","bilabial","TrainingItems",1,23,123,80,NA,NA,NA,NA,NA,NA,NA,NA,NA,NA,12,"M",22,59.8555237478,"German 1 yr, Spanish 3 yrs.","American English","VSH_Exp2","2016_Feb_23_1835",NA
"Recordings/zuva.wav","yes","z","v","u","no","a","zuva","Training","alveolar","TrainingItems",1,24,124,37,NA,NA,NA,NA,NA,NA,NA,NA,NA,NA,12,"M",22,59.8555237478,"German 1 yr, Spanish 3 yrs.","American English","VSH_Exp2","2016_Feb_23_1835",NA
"Recordings/dabu.wav","yes","d","b","a","yes","u","dabu","Training","alveolar","TrainingItems",1,25,125,4,NA,NA,NA,NA,NA,NA,NA,NA,NA,NA,12,"M",22,59.8555237478,"German 1 yr, Spanish 3 yrs.","American English","VSH_Exp2","2016_Feb_23_1835",NA
"Recordings/dibi.wav","yes","d","b","i","yes","i","dibi","Training","alveolar","TrainingItems",1,26,126,36,NA,NA,NA,NA,NA,NA,NA,NA,NA,NA,12,"M",22,59.8555237478,"German 1 yr, Spanish 3 yrs.","American English","VSH_Exp2","2016_Feb_23_1835",NA
"Recordings/bubu.wav","yes","b","b","u","yes","u","bubu","Training","bilabial","TrainingItems",1,27,127,29,NA,NA,NA,NA,NA,NA,NA,NA,NA,NA,12,"M",22,59.8555237478,"German 1 yr, Spanish 3 yrs.","American English","VSH_Exp2","2016_Feb_23_1835",NA
"Recordings/dida.wav","yes","d","d","i","yes","a","dida","Training","alveolar","TrainingItems",1,28,128,31,NA,NA,NA,NA,NA,NA,NA,NA,NA,NA,12,"M",22,59.8555237478,"German 1 yr, Spanish 3 yrs.","American English","VSH_Exp2","2016_Feb_23_1835",NA
"Recordings/tipa.wav","no","t","p","i","yes","a","tipa","Training","alveolar","TrainingItems",1,29,129,96,NA,NA,NA,NA,NA,NA,NA,NA,NA,NA,12,"M",22,59.8555237478,"German 1 yr, Spanish 3 yrs.","American English","VSH_Exp2","2016_Feb_23_1835",NA
"Recordings/daba.wav","yes","d","b","a","yes","a","daba","Training","alveolar","TrainingItems",1,30,130,43,NA,NA,NA,NA,NA,NA,NA,NA,NA,NA,12,"M",22,59.8555237478,"German 1 yr, Spanish 3 yrs.","American English","VSH_Exp2","2016_Feb_23_1835",NA
"Recordings/tupa.wav","no","t","p","u","yes","a","tupa","Training","alveolar","TrainingItems",1,31,131,62,NA,NA,NA,NA,NA,NA,NA,NA,NA,NA,12,"M",22,59.8555237478,"German 1 yr, Spanish 3 yrs.","American English","VSH_Exp2","2016_Feb_23_1835",NA
"Recordings/vuvu.wav","yes","v","v","u","no","u","vuvu","Training","bilabial","TrainingItems",1,32,132,13,NA,NA,NA,NA,NA,NA,NA,NA,NA,NA,12,"M",22,59.8555237478,"German 1 yr, Spanish 3 yrs.","American English","VSH_Exp2","2016_Feb_23_1835",NA
"Recordings/zazi.wav","yes","z","z","a","no","i","zazi","Training","alveolar","TrainingItems",1,33,133,0,NA,NA,NA,NA,NA,NA,NA,NA,NA,NA,12,"M",22,59.8555237478,"German 1 yr, Spanish 3 yrs.","American English","VSH_Exp2","2016_Feb_23_1835",NA
"Recordings/titi.wav","no","t","t","i","yes","i","titi","Training","alveolar","TrainingItems",1,34,134,58,NA,NA,NA,NA,NA,NA,NA,NA,NA,NA,12,"M",22,59.8555237478,"German 1 yr, Spanish 3 yrs.","American English","VSH_Exp2","2016_Feb_23_1835",NA
"Recordings/bibi.wav","yes","b","b","i","yes","i","bibi","Training","bilabial","TrainingItems",1,35,135,12,NA,NA,NA,NA,NA,NA,NA,NA,NA,NA,12,"M",22,59.8555237478,"German 1 yr, Spanish 3 yrs.","American English","VSH_Exp2","2016_Feb_23_1835",NA
"Recordings/fafu.wav","no","f","f","a","no","u","fafu","Training","bilabial","TrainingItems",1,36,136,16,NA,NA,NA,NA,NA,NA,NA,NA,NA,NA,12,"M",22,59.8555237478,"German 1 yr, Spanish 3 yrs.","American English","VSH_Exp2","2016_Feb_23_1835",NA
"Recordings/vivi.wav","yes","v","v","i","no","i","vivi","Training","bilabial","TrainingItems",1,37,137,53,NA,NA,NA,NA,NA,NA,NA,NA,NA,NA,12,"M",22,59.8555237478,"German 1 yr, Spanish 3 yrs.","American English","VSH_Exp2","2016_Feb_23_1835",NA
"Recordings/fufa.wav","no","f","f","u","no","a","fufa","Training","bilabial","TrainingItems",1,38,138,48,NA,NA,NA,NA,NA,NA,NA,NA,NA,NA,12,"M",22,59.8555237478,"German 1 yr, Spanish 3 yrs.","American English","VSH_Exp2","2016_Feb_23_1835",NA
"Recordings/pupu.wav","no","p","p","u","yes","u","pupu","Training","bilabial","TrainingItems",1,39,139,33,NA,NA,NA,NA,NA,NA,NA,NA,NA,NA,12,"M",22,59.8555237478,"German 1 yr, Spanish 3 yrs.","American English","VSH_Exp2","2016_Feb_23_1835",NA
"Recordings/duba.wav","yes","d","b","u","yes","a","duba","Training","alveolar","TrainingItems",1,40,140,85,NA,NA,NA,NA,NA,NA,NA,NA,NA,NA,12,"M",22,59.8555237478,"German 1 yr, Spanish 3 yrs.","American English","VSH_Exp2","2016_Feb_23_1835",NA
"Recordings/fifu.wav","no","f","f","i","no","u","fifu","Training","bilabial","TrainingItems",1,41,141,68,NA,NA,NA,NA,NA,NA,NA,NA,NA,NA,12,"M",22,59.8555237478,"German 1 yr, Spanish 3 yrs.","American English","VSH_Exp2","2016_Feb_23_1835",NA
"Recordings/budu.wav","yes","b","d","u","yes","u","budu","Training","bilabial","TrainingItems",1,42,142,60,NA,NA,NA,NA,NA,NA,NA,NA,NA,NA,12,"M",22,59.8555237478,"German 1 yr, Spanish 3 yrs.","American English","VSH_Exp2","2016_Feb_23_1835",NA
"Recordings/bida.wav","yes","b","d","i","yes","a","bida","Training","bilabial","TrainingItems",1,43,143,75,NA,NA,NA,NA,NA,NA,NA,NA,NA,NA,12,"M",22,59.8555237478,"German 1 yr, Spanish 3 yrs.","American English","VSH_Exp2","2016_Feb_23_1835",NA
"Recordings/bidi.wav","yes","b","d","i","yes","i","bidi","Training","bilabial","TrainingItems",1,44,144,56,NA,NA,NA,NA,NA,NA,NA,NA,NA,NA,12,"M",22,59.8555237478,"German 1 yr, Spanish 3 yrs.","American English","VSH_Exp2","2016_Feb_23_1835",NA
"Recordings/pita.wav","no","p","t","i","yes","a","pita","Training","bilabial","TrainingItems",1,45,145,51,NA,NA,NA,NA,NA,NA,NA,NA,NA,NA,12,"M",22,59.8555237478,"German 1 yr, Spanish 3 yrs.","American English","VSH_Exp2","2016_Feb_23_1835",NA
"Recordings/budi.wav","yes","b","d","u","yes","i","budi","Training","bilabial","TrainingItems",1,46,146,61,NA,NA,NA,NA,NA,NA,NA,NA,NA,NA,12,"M",22,59.8555237478,"German 1 yr, Spanish 3 yrs.","American English","VSH_Exp2","2016_Feb_23_1835",NA
"Recordings/fafi.wav","no","f","f","a","no","i","fafi","Training","bilabial","TrainingItems",1,47,147,77,NA,NA,NA,NA,NA,NA,NA,NA,NA,NA,12,"M",22,59.8555237478,"German 1 yr, Spanish 3 yrs.","American English","VSH_Exp2","2016_Feb_23_1835",NA
"Recordings/tupi.wav","no","t","p","u","yes","i","tupi","Training","alveolar","TrainingItems",1,48,148,86,NA,NA,NA,NA,NA,NA,NA,NA,NA,NA,12,"M",22,59.8555237478,"German 1 yr, Spanish 3 yrs.","American English","VSH_Exp2","2016_Feb_23_1835",NA
"Recordings/vizu.wav","yes","v","z","i","no","u","vizu","Training","bilabial","TrainingItems",1,49,149,88,NA,NA,NA,NA,NA,NA,NA,NA,NA,NA,12,"M",22,59.8555237478,"German 1 yr, Spanish 3 yrs.","American English","VSH_Exp2","2016_Feb_23_1835",NA
"Recordings/dubu.wav","yes","d","b","u","yes","u","dubu","Training","alveolar","TrainingItems",1,50,150,42,NA,NA,NA,NA,NA,NA,NA,NA,NA,NA,12,"M",22,59.8555237478,"German 1 yr, Spanish 3 yrs.","American English","VSH_Exp2","2016_Feb_23_1835",NA
"Recordings/babi.wav","yes","b","b","a","yes","i","babi","Training","bilabial","TrainingItems",1,51,151,81,NA,NA,NA,NA,NA,NA,NA,NA,NA,NA,12,"M",22,59.8555237478,"German 1 yr, Spanish 3 yrs.","American English","VSH_Exp2","2016_Feb_23_1835",NA
"Recordings/viza.wav","yes","v","z","i","no","a","viza","Training","bilabial","TrainingItems",1,52,152,83,NA,NA,NA,NA,NA,NA,NA,NA,NA,NA,12,"M",22,59.8555237478,"German 1 yr, Spanish 3 yrs.","American English","VSH_Exp2","2016_Feb_23_1835",NA
"Recordings/zavi.wav","yes","z","v","a","no","i","zavi","Training","alveolar","TrainingItems",1,53,153,57,NA,NA,NA,NA,NA,NA,NA,NA,NA,NA,12,"M",22,59.8555237478,"German 1 yr, Spanish 3 yrs.","American English","VSH_Exp2","2016_Feb_23_1835",NA
"Recordings/pata.wav","no","p","t","a","yes","a","pata","Training","bilabial","TrainingItems",1,54,154,54,NA,NA,NA,NA,NA,NA,NA,NA,NA,NA,12,"M",22,59.8555237478,"German 1 yr, Spanish 3 yrs.","American English","VSH_Exp2","2016_Feb_23_1835",NA
"Recordings/zivi.wav","yes","z","v","i","no","i","zivi","Training","alveolar","TrainingItems",1,55,155,17,NA,NA,NA,NA,NA,NA,NA,NA,NA,NA,12,"M",22,59.8555237478,"German 1 yr, Spanish 3 yrs.","American English","VSH_Exp2","2016_Feb_23_1835",NA
"Recordings/badu.wav","yes","b","d","a","yes","u","badu","Training","bilabial","TrainingItems",1,56,156,24,NA,NA,NA,NA,NA,NA,NA,NA,NA,NA,12,"M",22,59.8555237478,"German 1 yr, Spanish 3 yrs.","American English","VSH_Exp2","2016_Feb_23_1835",NA
"Recordings/susa.wav","no","s","s","u","no","a","susa","Training","alveolar","TrainingItems",1,57,157,3,NA,NA,NA,NA,NA,NA,NA,NA,NA,NA,12,"M",22,59.8555237478,"German 1 yr, Spanish 3 yrs.","American English","VSH_Exp2","2016_Feb_23_1835",NA
"Recordings/zaza.wav","yes","z","z","a","no","a","zaza","Training","alveolar","TrainingItems",1,58,158,32,NA,NA,NA,NA,NA,NA,NA,NA,NA,NA,12,"M",22,59.8555237478,"German 1 yr, Spanish 3 yrs.","American English","VSH_Exp2","2016_Feb_23_1835",NA
"Recordings/babu.wav","yes","b","b","a","yes","u","babu","Training","bilabial","TrainingItems",1,59,159,14,NA,NA,NA,NA,NA,NA,NA,NA,NA,NA,12,"M",22,59.8555237478,"German 1 yr, Spanish 3 yrs.","American English","VSH_Exp2","2016_Feb_23_1835",NA
"Recordings/sasi.wav","no","s","s","a","no","i","sasi","Training","alveolar","TrainingItems",1,60,160,18,NA,NA,NA,NA,NA,NA,NA,NA,NA,NA,12,"M",22,59.8555237478,"German 1 yr, Spanish 3 yrs.","American English","VSH_Exp2","2016_Feb_23_1835",NA
"Recordings/dadi.wav","yes","d","d","a","yes","i","dadi","Training","alveolar","TrainingItems",1,61,161,9,NA,NA,NA,NA,NA,NA,NA,NA,NA,NA,12,"M",22,59.8555237478,"German 1 yr, Spanish 3 yrs.","American English","VSH_Exp2","2016_Feb_23_1835",NA
"Recordings/papi.wav","no","p","p","a","yes","i","papi","Training","bilabial","TrainingItems",1,62,162,10,NA,NA,NA,NA,NA,NA,NA,NA,NA,NA,12,"M",22,59.8555237478,"German 1 yr, Spanish 3 yrs.","American English","VSH_Exp2","2016_Feb_23_1835",NA
"Recordings/zuvi.wav","yes","z","v","u","no","i","zuvi","Training","alveolar","TrainingItems",1,63,163,79,NA,NA,NA,NA,NA,NA,NA,NA,NA,NA,12,"M",22,59.8555237478,"German 1 yr, Spanish 3 yrs.","American English","VSH_Exp2","2016_Feb_23_1835",NA
"Recordings/vuzi.wav","yes","v","z","u","no","i","vuzi","Training","bilabial","TrainingItems",1,64,164,76,NA,NA,NA,NA,NA,NA,NA,NA,NA,NA,12,"M",22,59.8555237478,"German 1 yr, Spanish 3 yrs.","American English","VSH_Exp2","2016_Feb_23_1835",NA
"Recordings/vuvi.wav","yes","v","v","u","no","i","vuvi","Training","bilabial","TrainingItems",1,65,165,82,NA,NA,NA,NA,NA,NA,NA,NA,NA,NA,12,"M",22,59.8555237478,"German 1 yr, Spanish 3 yrs.","American English","VSH_Exp2","2016_Feb_23_1835",NA
"Recordings/papa.wav","no","p","p","a","yes","a","papa","Training","bilabial","TrainingItems",1,66,166,8,NA,NA,NA,NA,NA,NA,NA,NA,NA,NA,12,"M",22,59.8555237478,"German 1 yr, Spanish 3 yrs.","American English","VSH_Exp2","2016_Feb_23_1835",NA
"Recordings/dadu.wav","yes","d","d","a","yes","u","dadu","Training","alveolar","TrainingItems",1,67,167,34,NA,NA,NA,NA,NA,NA,NA,NA,NA,NA,12,"M",22,59.8555237478,"German 1 yr, Spanish 3 yrs.","American English","VSH_Exp2","2016_Feb_23_1835",NA
"Recordings/dabi.wav","yes","d","b","a","yes","i","dabi","Training","alveolar","TrainingItems",1,68,168,99,NA,NA,NA,NA,NA,NA,NA,NA,NA,NA,12,"M",22,59.8555237478,"German 1 yr, Spanish 3 yrs.","American English","VSH_Exp2","2016_Feb_23_1835",NA
"Recordings/fifi.wav","no","f","f","i","no","i","fifi","Training","bilabial","TrainingItems",1,69,169,20,NA,NA,NA,NA,NA,NA,NA,NA,NA,NA,12,"M",22,59.8555237478,"German 1 yr, Spanish 3 yrs.","American English","VSH_Exp2","2016_Feb_23_1835",NA
"Recordings/tipu.wav","no","t","p","i","yes","u","tipu","Training","alveolar","TrainingItems",1,70,170,1,NA,NA,NA,NA,NA,NA,NA,NA,NA,NA,12,"M",22,59.8555237478,"German 1 yr, Spanish 3 yrs.","American English","VSH_Exp2","2016_Feb_23_1835",NA
"Recordings/tupu.wav","no","t","p","u","yes","u","tupu","Training","alveolar","TrainingItems",1,71,171,38,NA,NA,NA,NA,NA,NA,NA,NA,NA,NA,12,"M",22,59.8555237478,"German 1 yr, Spanish 3 yrs.","American English","VSH_Exp2","2016_Feb_23_1835",NA
"Recordings/fifa.wav","no","f","f","i","no","a","fifa","Training","bilabial","TrainingItems",1,72,172,84,NA,NA,NA,NA,NA,NA,NA,NA,NA,NA,12,"M",22,59.8555237478,"German 1 yr, Spanish 3 yrs.","American English","VSH_Exp2","2016_Feb_23_1835",NA
"Recordings/viva.wav","yes","v","v","i","no","a","viva","Training","bilabial","TrainingItems",1,73,173,64,NA,NA,NA,NA,NA,NA,NA,NA,NA,NA,12,"M",22,59.8555237478,"German 1 yr, Spanish 3 yrs.","American English","VSH_Exp2","2016_Feb_23_1835",NA
"Recordings/fufu.wav","no","f","f","u","no","u","fufu","Training","bilabial","TrainingItems",1,74,174,15,NA,NA,NA,NA,NA,NA,NA,NA,NA,NA,12,"M",22,59.8555237478,"German 1 yr, Spanish 3 yrs.","American English","VSH_Exp2","2016_Feb_23_1835",NA
"Recordings/buda.wav","yes","b","d","u","yes","a","buda","Training","bilabial","TrainingItems",1,75,175,23,NA,NA,NA,NA,NA,NA,NA,NA,NA,NA,12,"M",22,59.8555237478,"German 1 yr, Spanish 3 yrs.","American English","VSH_Exp2","2016_Feb_23_1835",NA
"Recordings/vuva.wav","yes","v","v","u","no","a","vuva","Training","bilabial","TrainingItems",1,76,176,39,NA,NA,NA,NA,NA,NA,NA,NA,NA,NA,12,"M",22,59.8555237478,"German 1 yr, Spanish 3 yrs.","American English","VSH_Exp2","2016_Feb_23_1835",NA
"Recordings/dibu.wav","yes","d","b","i","yes","u","dibu","Training","alveolar","TrainingItems",1,77,177,91,NA,NA,NA,NA,NA,NA,NA,NA,NA,NA,12,"M",22,59.8555237478,"German 1 yr, Spanish 3 yrs.","American English","VSH_Exp2","2016_Feb_23_1835",NA
"Recordings/titu.wav","no","t","t","i","yes","u","titu","Training","alveolar","TrainingItems",1,78,178,94,NA,NA,NA,NA,NA,NA,NA,NA,NA,NA,12,"M",22,59.8555237478,"German 1 yr, Spanish 3 yrs.","American English","VSH_Exp2","2016_Feb_23_1835",NA
"Recordings/zuza.wav","yes","z","z","u","no","a","zuza","Training","alveolar","TrainingItems",1,79,179,46,NA,NA,NA,NA,NA,NA,NA,NA,NA,NA,12,"M",22,59.8555237478,"German 1 yr, Spanish 3 yrs.","American English","VSH_Exp2","2016_Feb_23_1835",NA
"Recordings/zuzu.wav","yes","z","z","u","no","u","zuzu","Training","alveolar","TrainingItems",1,80,180,93,NA,NA,NA,NA,NA,NA,NA,NA,NA,NA,12,"M",22,59.8555237478,"German 1 yr, Spanish 3 yrs.","American English","VSH_Exp2","2016_Feb_23_1835",NA
"Recordings/tapu.wav","no","t","p","a","yes","u","tapu","Training","alveolar","TrainingItems",1,81,181,52,NA,NA,NA,NA,NA,NA,NA,NA,NA,NA,12,"M",22,59.8555237478,"German 1 yr, Spanish 3 yrs.","American English","VSH_Exp2","2016_Feb_23_1835",NA
"Recordings/pipa.wav","no","p","p","i","yes","a","pipa","Training","bilabial","TrainingItems",1,82,182,26,NA,NA,NA,NA,NA,NA,NA,NA,NA,NA,12,"M",22,59.8555237478,"German 1 yr, Spanish 3 yrs.","American English","VSH_Exp2","2016_Feb_23_1835",NA
"Recordings/susu.wav","no","s","s","u","no","u","susu","Training","alveolar","TrainingItems",1,83,183,45,NA,NA,NA,NA,NA,NA,NA,NA,NA,NA,12,"M",22,59.8555237478,"German 1 yr, Spanish 3 yrs.","American English","VSH_Exp2","2016_Feb_23_1835",NA
"Recordings/vazu.wav","yes","v","z","a","no","u","vazu","Training","bilabial","TrainingItems",1,84,184,40,NA,NA,NA,NA,NA,NA,NA,NA,NA,NA,12,"M",22,59.8555237478,"German 1 yr, Spanish 3 yrs.","American English","VSH_Exp2","2016_Feb_23_1835",NA
"Recordings/vazi.wav","yes","v","z","a","no","i","vazi","Training","bilabial","TrainingItems",1,85,185,69,NA,NA,NA,NA,NA,NA,NA,NA,NA,NA,12,"M",22,59.8555237478,"German 1 yr, Spanish 3 yrs.","American English","VSH_Exp2","2016_Feb_23_1835",NA
"Recordings/bubi.wav","yes","b","b","u","yes","i","bubi","Training","bilabial","TrainingItems",1,86,186,71,NA,NA,NA,NA,NA,NA,NA,NA,NA,NA,12,"M",22,59.8555237478,"German 1 yr, Spanish 3 yrs.","American English","VSH_Exp2","2016_Feb_23_1835",NA
"Recordings/tatu.wav","no","t","t","a","yes","u","tatu","Training","alveolar","TrainingItems",1,87,187,35,NA,NA,NA,NA,NA,NA,NA,NA,NA,NA,12,"M",22,59.8555237478,"German 1 yr, Spanish 3 yrs.","American English","VSH_Exp2","2016_Feb_23_1835",NA
"Recordings/sisa.wav","no","s","s","i","no","a","sisa","Training","alveolar","TrainingItems",1,88,188,21,NA,NA,NA,NA,NA,NA,NA,NA,NA,NA,12,"M",22,59.8555237478,"German 1 yr, Spanish 3 yrs.","American English","VSH_Exp2","2016_Feb_23_1835",NA
"Recordings/sisi.wav","no","s","s","i","no","i","sisi","Training","alveolar","TrainingItems",1,89,189,87,NA,NA,NA,NA,NA,NA,NA,NA,NA,NA,12,"M",22,59.8555237478,"German 1 yr, Spanish 3 yrs.","American English","VSH_Exp2","2016_Feb_23_1835",NA
"Recordings/sasu.wav","no","s","s","a","no","u","sasu","Training","alveolar","TrainingItems",1,90,190,90,NA,NA,NA,NA,NA,NA,NA,NA,NA,NA,12,"M",22,59.8555237478,"German 1 yr, Spanish 3 yrs.","American English","VSH_Exp2","2016_Feb_23_1835",NA
"Recordings/tuta.wav","no","t","t","u","yes","a","tuta","Training","alveolar","TrainingItems",1,91,191,6,NA,NA,NA,NA,NA,NA,NA,NA,NA,NA,12,"M",22,59.8555237478,"German 1 yr, Spanish 3 yrs.","American English","VSH_Exp2","2016_Feb_23_1835",NA
"Recordings/sasa.wav","no","s","s","a","no","a","sasa","Training","alveolar","TrainingItems",1,92,192,41,NA,NA,NA,NA,NA,NA,NA,NA,NA,NA,12,"M",22,59.8555237478,"German 1 yr, Spanish 3 yrs.","American English","VSH_Exp2","2016_Feb_23_1835",NA
"Recordings/vavu.wav","yes","v","v","a","no","u","vavu","Training","bilabial","TrainingItems",1,93,193,97,NA,NA,NA,NA,NA,NA,NA,NA,NA,NA,12,"M",22,59.8555237478,"German 1 yr, Spanish 3 yrs.","American English","VSH_Exp2","2016_Feb_23_1835",NA
"Recordings/vaza.wav","yes","v","z","a","no","a","vaza","Training","bilabial","TrainingItems",1,94,194,98,NA,NA,NA,NA,NA,NA,NA,NA,NA,NA,12,"M",22,59.8555237478,"German 1 yr, Spanish 3 yrs.","American English","VSH_Exp2","2016_Feb_23_1835",NA
"Recordings/bidu.wav","yes","b","d","i","yes","u","bidu","Training","bilabial","TrainingItems",1,95,195,74,NA,NA,NA,NA,NA,NA,NA,NA,NA,NA,12,"M",22,59.8555237478,"German 1 yr, Spanish 3 yrs.","American English","VSH_Exp2","2016_Feb_23_1835",NA
"Recordings/badi.wav","yes","b","d","a","yes","i","badi","Training","bilabial","TrainingItems",1,96,196,65,NA,NA,NA,NA,NA,NA,NA,NA,NA,NA,12,"M",22,59.8555237478,"German 1 yr, Spanish 3 yrs.","American English","VSH_Exp2","2016_Feb_23_1835",NA
"Recordings/zivu.wav","yes","z","v","i","no","u","zivu","Training","alveolar","TrainingItems",1,97,197,73,NA,NA,NA,NA,NA,NA,NA,NA,NA,NA,12,"M",22,59.8555237478,"German 1 yr, Spanish 3 yrs.","American English","VSH_Exp2","2016_Feb_23_1835",NA
"Recordings/pati.wav","no","p","t","a","yes","i","pati","Training","bilabial","TrainingItems",1,98,198,92,NA,NA,NA,NA,NA,NA,NA,NA,NA,NA,12,"M",22,59.8555237478,"German 1 yr, Spanish 3 yrs.","American English","VSH_Exp2","2016_Feb_23_1835",NA
"Recordings/tita.wav","no","t","t","i","yes","a","tita","Training","alveolar","TrainingItems",1,99,199,49,NA,NA,NA,NA,NA,NA,NA,NA,NA,NA,12,"M",22,59.8555237478,"German 1 yr, Spanish 3 yrs.","American English","VSH_Exp2","2016_Feb_23_1835",NA
NA,NA,NA,NA,NA,NA,NA,NA,NA,NA,NA,NA,NA,NA,NA,NA,NA,NA,NA,NA,NA,"space",7.8103530407,NA,NA,12,"M",22,59.8555237478,"German 1 yr, Spanish 3 yrs.","American English","VSH_Exp2","2016_Feb_23_1835",NA
"Recordings/dusa.wav","yes","d","s","u","yes","a","dusa","Controls","alveolar","NoPatternControls",NA,NA,NA,NA,0,0,0,57,NA,NA,NA,NA,"Yes",7.793,12,"M",22,59.8555237478,"German 1 yr, Spanish 3 yrs.","American English","VSH_Exp2","2016_Feb_23_1835",NA
"Recordings/ziva.wav","yes","z","v","i","no","a","ziva","Test","alveolar","OldTestStimuli",NA,NA,NA,NA,0,1,1,0,NA,NA,NA,NA,"Yes",1.638,12,"M",22,59.8555237478,"German 1 yr, Spanish 3 yrs.","American English","VSH_Exp2","2016_Feb_23_1835",NA
"Recordings/sifu.wav","no","s","f","i","no","u","sifu","Test","alveolar","NewConsTestStimuli",NA,NA,NA,NA,0,2,2,14,NA,NA,NA,NA,"No",2.322,12,"M",22,59.8555237478,"German 1 yr, Spanish 3 yrs.","American English","VSH_Exp2","2016_Feb_23_1835",NA
"Recordings/fapa.wav","no","f","p","a","no","a","fapa","Controls","bilabial","VoicingControls",NA,NA,NA,NA,0,3,3,48,NA,NA,NA,NA,"Yes",1.636,12,"M",22,59.8555237478,"German 1 yr, Spanish 3 yrs.","American English","VSH_Exp2","2016_Feb_23_1835",NA
"Recordings/duzi.wav","yes","d","z","u","yes","i","duzi","Controls","alveolar","VoicingControls",NA,NA,NA,NA,0,4,4,47,NA,NA,NA,NA,"Yes",0.968,12,"M",22,59.8555237478,"German 1 yr, Spanish 3 yrs.","American English","VSH_Exp2","2016_Feb_23_1835",NA
"Recordings/fisi.wav","no","f","s","i","no","i","fisi","Test","bilabial","NewConsTestStimuli",NA,NA,NA,NA,0,5,5,19,NA,NA,NA,NA,"Yes",1.754,12,"M",22,59.8555237478,"German 1 yr, Spanish 3 yrs.","American English","VSH_Exp2","2016_Feb_23_1835",NA
"Recordings/tati.wav","no","t","t","a","yes","i","tati","Test","alveolar","NewWordTestStimuli",NA,NA,NA,NA,0,6,6,21,NA,NA,NA,NA,"Yes",1.536,12,"M",22,59.8555237478,"German 1 yr, Spanish 3 yrs.","American English","VSH_Exp2","2016_Feb_23_1835",NA
"Recordings/sufa.wav","no","s","f","u","no","a","sufa","Test","alveolar","NewConsTestStimuli",NA,NA,NA,NA,0,7,7,10,NA,NA,NA,NA,"Yes",1.689,12,"M",22,59.8555237478,"German 1 yr, Spanish 3 yrs.","American English","VSH_Exp2","2016_Feb_23_1835",NA
"Recordings/tusu.wav","no","t","s","u","yes","u","tusu","Controls","alveolar","VoicingControls",NA,NA,NA,NA,0,8,8,46,NA,NA,NA,NA,"Yes",1.637,12,"M",22,59.8555237478,"German 1 yr, Spanish 3 yrs.","American English","VSH_Exp2","2016_Feb_23_1835",NA
"Recordings/fusu.wav","no","f","s","u","no","u","fusu","Test","bilabial","NewConsTestStimuli",NA,NA,NA,NA,0,9,9,13,NA,NA,NA,NA,"No",0.802,12,"M",22,59.8555237478,"German 1 yr, Spanish 3 yrs.","American English","VSH_Exp2","2016_Feb_23_1835",NA
"Recordings/safi.wav","no","s","f","a","no","i","safi","Test","alveolar","NewConsTestStimuli",NA,NA,NA,NA,0,10,10,11,NA,NA,NA,NA,"Yes",2.273,12,"M",22,59.8555237478,"German 1 yr, Spanish 3 yrs.","American English","VSH_Exp2","2016_Feb_23_1835",NA
"Recordings/diba.wav","yes","d","b","i","yes","a","diba","Test","alveolar","NewWordTestStimuli",NA,NA,NA,NA,0,11,11,24,NA,NA,NA,NA,"No",4.424,12,"M",22,59.8555237478,"German 1 yr, Spanish 3 yrs.","American English","VSH_Exp2","2016_Feb_23_1835",NA
"Recordings/putu.wav","no","p","t","u","yes","u","putu","Test","bilabial","NewWordTestStimuli",NA,NA,NA,NA,0,12,12,26,NA,NA,NA,NA,"Yes",2.272,12,"M",22,59.8555237478,"German 1 yr, Spanish 3 yrs.","American English","VSH_Exp2","2016_Feb_23_1835",NA
"Recordings/buba.wav","yes","b","b","u","yes","a","buba","Test","bilabial","OldTestStimuli",NA,NA,NA,NA,0,13,13,1,NA,NA,NA,NA,"Yes",0.97,12,"M",22,59.8555237478,"German 1 yr, Spanish 3 yrs.","American English","VSH_Exp2","2016_Feb_23_1835",NA
"Recordings/pati.wav","no","p","t","a","yes","i","pati","Test","bilabial","OldTestStimuli",NA,NA,NA,NA,0,14,14,9,NA,NA,NA,NA,"Yes",1.254,12,"M",22,59.8555237478,"German 1 yr, Spanish 3 yrs.","American English","VSH_Exp2","2016_Feb_23_1835",NA
"Recordings/sifa.wav","no","s","f","i","no","a","sifa","Test","alveolar","NewConsTestStimuli",NA,NA,NA,NA,0,15,15,17,NA,NA,NA,NA,"No",1.353,12,"M",22,59.8555237478,"German 1 yr, Spanish 3 yrs.","American English","VSH_Exp2","2016_Feb_23_1835",NA
"Recordings/zuti.wav","yes","z","t","u","no","i","zuti","Controls","alveolar","NoPatternControls",NA,NA,NA,NA,0,16,16,50,NA,NA,NA,NA,"Yes",1.086,12,"M",22,59.8555237478,"German 1 yr, Spanish 3 yrs.","American English","VSH_Exp2","2016_Feb_23_1835",NA
"Recordings/duvu.wav","yes","d","v","u","yes","u","duvu","Controls","alveolar","VoicingControls",NA,NA,NA,NA,0,17,17,42,NA,NA,NA,NA,"No",2.189,12,"M",22,59.8555237478,"German 1 yr, Spanish 3 yrs.","American English","VSH_Exp2","2016_Feb_23_1835",NA
"Recordings/zuzi.wav","yes","z","z","u","no","i","zuzi","Test","alveolar","NewWordTestStimuli",NA,NA,NA,NA,0,18,18,27,NA,NA,NA,NA,"No",1.221,12,"M",22,59.8555237478,"German 1 yr, Spanish 3 yrs.","American English","VSH_Exp2","2016_Feb_23_1835",NA
"Recordings/fadu.wav","no","f","d","a","no","u","fadu","Controls","bilabial","NoPatternControls",NA,NA,NA,NA,0,19,19,58,NA,NA,NA,NA,"Yes",1.103,12,"M",22,59.8555237478,"German 1 yr, Spanish 3 yrs.","American English","VSH_Exp2","2016_Feb_23_1835",NA
"Recordings/dupu.wav","yes","d","p","u","yes","u","dupu","Controls","alveolar","StopControls",NA,NA,NA,NA,0,20,20,32,NA,NA,NA,NA,"No",1.037,12,"M",22,59.8555237478,"German 1 yr, Spanish 3 yrs.","American English","VSH_Exp2","2016_Feb_23_1835",NA
"Recordings/tisu.wav","no","t","s","i","yes","u","tisu","Controls","alveolar","VoicingControls",NA,NA,NA,NA,0,21,21,41,NA,NA,NA,NA,"Yes",0.955,12,"M",22,59.8555237478,"German 1 yr, Spanish 3 yrs.","American English","VSH_Exp2","2016_Feb_23_1835",NA
"Recordings/suva.wav","no","s","v","u","no","a","suva","Controls","alveolar","StopControls",NA,NA,NA,NA,0,22,22,33,NA,NA,NA,NA,"Yes",0.853,12,"M",22,59.8555237478,"German 1 yr, Spanish 3 yrs.","American English","VSH_Exp2","2016_Feb_23_1835",NA
"Recordings/fida.wav","no","f","d","i","no","a","fida","Controls","bilabial","NoPatternControls",NA,NA,NA,NA,0,23,23,55,NA,NA,NA,NA,"Yes",3.374,12,"M",22,59.8555237478,"German 1 yr, Spanish 3 yrs.","American English","VSH_Exp2","2016_Feb_23_1835",NA
"Recordings/dizu.wav","yes","d","z","i","yes","u","dizu","Controls","alveolar","VoicingControls",NA,NA,NA,NA,0,24,24,44,NA,NA,NA,NA,"Yes",2.071,12,"M",22,59.8555237478,"German 1 yr, Spanish 3 yrs.","American English","VSH_Exp2","2016_Feb_23_1835",NA
"Recordings/dudi.wav","yes","d","d","u","yes","i","dudi","Test","alveolar","NewWordTestStimuli",NA,NA,NA,NA,0,25,25,22,NA,NA,NA,NA,"No",1.187,12,"M",22,59.8555237478,"German 1 yr, Spanish 3 yrs.","American English","VSH_Exp2","2016_Feb_23_1835",NA
"Recordings/dasi.wav","yes","d","s","a","yes","i","dasi","Controls","alveolar","NoPatternControls",NA,NA,NA,NA,0,26,26,59,NA,NA,NA,NA,"No",1.087,12,"M",22,59.8555237478,"German 1 yr, Spanish 3 yrs.","American English","VSH_Exp2","2016_Feb_23_1835",NA
"Recordings/vizi.wav","yes","v","z","i","no","i","vizi","Test","bilabial","OldTestStimuli",NA,NA,NA,NA,0,27,27,3,NA,NA,NA,NA,"No",1.388,12,"M",22,59.8555237478,"German 1 yr, Spanish 3 yrs.","American English","VSH_Exp2","2016_Feb_23_1835",NA
"Recordings/papu.wav","no","p","p","a","yes","u","papu","Test","bilabial","NewWordTestStimuli",NA,NA,NA,NA,0,28,28,25,NA,NA,NA,NA,"No",1.837,12,"M",22,59.8555237478,"German 1 yr, Spanish 3 yrs.","American English","VSH_Exp2","2016_Feb_23_1835",NA
"Recordings/fasi.wav","no","f","s","a","no","i","fasi","Test","bilabial","NewConsTestStimuli",NA,NA,NA,NA,0,29,29,15,NA,NA,NA,NA,"No",1.254,12,"M",22,59.8555237478,"German 1 yr, Spanish 3 yrs.","American English","VSH_Exp2","2016_Feb_23_1835",NA
"Recordings/budi.wav","yes","b","d","u","yes","i","budi","Test","bilabial","OldTestStimuli",NA,NA,NA,NA,0,30,30,6,NA,NA,NA,NA,"No",2.592,12,"M",22,59.8555237478,"German 1 yr, Spanish 3 yrs.","American English","VSH_Exp2","2016_Feb_23_1835",NA
"Recordings/dafu.wav","yes","d","f","a","yes","u","dafu","Controls","alveolar","NoPatternControls",NA,NA,NA,NA,0,31,31,54,NA,NA,NA,NA,"Yes",2.923,12,"M",22,59.8555237478,"German 1 yr, Spanish 3 yrs.","American English","VSH_Exp2","2016_Feb_23_1835",NA
"Recordings/fafu.wav","no","f","f","a","no","u","fafu","Test","bilabial","OldTestStimuli",NA,NA,NA,NA,0,32,32,2,NA,NA,NA,NA,"No",2.721,12,"M",22,59.8555237478,"German 1 yr, Spanish 3 yrs.","American English","VSH_Exp2","2016_Feb_23_1835",NA
"Recordings/vivu.wav","yes","v","v","i","no","u","vivu","Test","bilabial","NewWordTestStimuli",NA,NA,NA,NA,0,33,33,29,NA,NA,NA,NA,"No",2.338,12,"M",22,59.8555237478,"German 1 yr, Spanish 3 yrs.","American English","VSH_Exp2","2016_Feb_23_1835",NA
"Recordings/vavi.wav","yes","v","v","a","no","i","vavi","Test","bilabial","NewWordTestStimuli",NA,NA,NA,NA,0,34,34,28,NA,NA,NA,NA,"No",1.586,12,"M",22,59.8555237478,"German 1 yr, Spanish 3 yrs.","American English","VSH_Exp2","2016_Feb_23_1835",NA
"Recordings/zizi.wav","yes","z","z","i","no","i","zizi","Test","alveolar","NewWordTestStimuli",NA,NA,NA,NA,0,35,35,20,NA,NA,NA,NA,"No",1.402,12,"M",22,59.8555237478,"German 1 yr, Spanish 3 yrs.","American English","VSH_Exp2","2016_Feb_23_1835",NA
"Recordings/fipu.wav","no","f","p","i","no","u","fipu","Controls","bilabial","VoicingControls",NA,NA,NA,NA,0,36,36,45,NA,NA,NA,NA,"No",1.053,12,"M",22,59.8555237478,"German 1 yr, Spanish 3 yrs.","American English","VSH_Exp2","2016_Feb_23_1835",NA
"Recordings/tata.wav","no","t","t","a","yes","a","tata","Test","alveolar","OldTestStimuli",NA,NA,NA,NA,0,37,37,7,NA,NA,NA,NA,"Yes",0.954,12,"M",22,59.8555237478,"German 1 yr, Spanish 3 yrs.","American English","VSH_Exp2","2016_Feb_23_1835",NA
"Recordings/fisu.wav","no","f","s","i","no","u","fisu","Test","bilabial","NewConsTestStimuli",NA,NA,NA,NA,0,38,38,12,NA,NA,NA,NA,"Yes",2.656,12,"M",22,59.8555237478,"German 1 yr, Spanish 3 yrs.","American English","VSH_Exp2","2016_Feb_23_1835",NA
"Recordings/duti.wav","yes","d","t","u","yes","i","duti","Controls","alveolar","StopControls",NA,NA,NA,NA,0,39,39,37,NA,NA,NA,NA,"Yes",1.236,12,"M",22,59.8555237478,"German 1 yr, Spanish 3 yrs.","American English","VSH_Exp2","2016_Feb_23_1835",NA
"Recordings/tubu.wav","no","t","b","u","yes","u","tubu","Controls","alveolar","StopControls",NA,NA,NA,NA,0,40,40,31,NA,NA,NA,NA,"No",1.304,12,"M",22,59.8555237478,"German 1 yr, Spanish 3 yrs.","American English","VSH_Exp2","2016_Feb_23_1835",NA
"Recordings/fuvi.wav","no","f","v","u","no","i","fuvi","Controls","bilabial","StopControls",NA,NA,NA,NA,0,41,41,38,NA,NA,NA,NA,"No",0.952,12,"M",22,59.8555237478,"German 1 yr, Spanish 3 yrs.","American English","VSH_Exp2","2016_Feb_23_1835",NA
"Recordings/dutu.wav","yes","d","t","u","yes","u","dutu","Controls","alveolar","StopControls",NA,NA,NA,NA,0,42,42,39,NA,NA,NA,NA,"No",1.136,12,"M",22,59.8555237478,"German 1 yr, Spanish 3 yrs.","American English","VSH_Exp2","2016_Feb_23_1835",NA
"Recordings/sifi.wav","no","s","f","i","no","i","sifi","Test","alveolar","NewConsTestStimuli",NA,NA,NA,NA,0,43,43,16,NA,NA,NA,NA,"Yes",1.804,12,"M",22,59.8555237478,"German 1 yr, Spanish 3 yrs.","American English","VSH_Exp2","2016_Feb_23_1835",NA
"Recordings/tuzu.wav","no","t","z","u","yes","u","tuzu","Controls","alveolar","NoPatternControls",NA,NA,NA,NA,0,44,44,56,NA,NA,NA,NA,"Yes",1.254,12,"M",22,59.8555237478,"German 1 yr, Spanish 3 yrs.","American English","VSH_Exp2","2016_Feb_23_1835",NA
"Recordings/zasa.wav","yes","z","s","a","no","a","zasa","Controls","alveolar","StopControls",NA,NA,NA,NA,0,45,45,30,NA,NA,NA,NA,"No",1.054,12,"M",22,59.8555237478,"German 1 yr, Spanish 3 yrs.","American English","VSH_Exp2","2016_Feb_23_1835",NA
"Recordings/sudi.wav","no","s","d","u","no","i","sudi","Controls","alveolar","NoPatternControls",NA,NA,NA,NA,0,46,46,53,NA,NA,NA,NA,"Yes",1.086,12,"M",22,59.8555237478,"German 1 yr, Spanish 3 yrs.","American English","VSH_Exp2","2016_Feb_23_1835",NA
"Recordings/fiva.wav","no","f","v","i","no","a","fiva","Controls","bilabial","StopControls",NA,NA,NA,NA,0,47,47,35,NA,NA,NA,NA,"No",2.555,12,"M",22,59.8555237478,"German 1 yr, Spanish 3 yrs.","American English","VSH_Exp2","2016_Feb_23_1835",NA
"Recordings/dufu.wav","yes","d","f","u","yes","u","dufu","Controls","alveolar","NoPatternControls",NA,NA,NA,NA,0,48,48,52,NA,NA,NA,NA,"No",1.07,12,"M",22,59.8555237478,"German 1 yr, Spanish 3 yrs.","American English","VSH_Exp2","2016_Feb_23_1835",NA
"Recordings/supi.wav","no","s","p","u","no","i","supi","Controls","alveolar","VoicingControls",NA,NA,NA,NA,0,49,49,43,NA,NA,NA,NA,"No",0.904,12,"M",22,59.8555237478,"German 1 yr, Spanish 3 yrs.","American English","VSH_Exp2","2016_Feb_23_1835",NA
"Recordings/dida.wav","yes","d","d","i","yes","a","dida","Test","alveolar","OldTestStimuli",NA,NA,NA,NA,0,50,50,5,NA,NA,NA,NA,"Yes",1.221,12,"M",22,59.8555237478,"German 1 yr, Spanish 3 yrs.","American English","VSH_Exp2","2016_Feb_23_1835",NA
"Recordings/duzu.wav","yes","d","z","u","yes","u","duzu","Controls","alveolar","VoicingControls",NA,NA,NA,NA,0,51,51,49,NA,NA,NA,NA,"Yes",1.053,12,"M",22,59.8555237478,"German 1 yr, Spanish 3 yrs.","American English","VSH_Exp2","2016_Feb_23_1835",NA
"Recordings/pitu.wav","no","p","t","i","yes","u","pitu","Test","bilabial","NewWordTestStimuli",NA,NA,NA,NA,0,52,52,23,NA,NA,NA,NA,"Yes",1.436,12,"M",22,59.8555237478,"German 1 yr, Spanish 3 yrs.","American English","VSH_Exp2","2016_Feb_23_1835",NA
"Recordings/tadi.wav","no","t","d","a","yes","i","tadi","Controls","alveolar","StopControls",NA,NA,NA,NA,0,53,53,36,NA,NA,NA,NA,"No",2.755,12,"M",22,59.8555237478,"German 1 yr, Spanish 3 yrs.","American English","VSH_Exp2","2016_Feb_23_1835",NA
"Recordings/sasi.wav","no","s","s","a","no","i","sasi","Test","alveolar","OldTestStimuli",NA,NA,NA,NA,0,54,54,4,NA,NA,NA,NA,"No",1.687,12,"M",22,59.8555237478,"German 1 yr, Spanish 3 yrs.","American English","VSH_Exp2","2016_Feb_23_1835",NA
"Recordings/tavi.wav","no","t","v","a","yes","i","tavi","Controls","alveolar","NoPatternControls",NA,NA,NA,NA,0,55,55,51,NA,NA,NA,NA,"Yes",1.103,12,"M",22,59.8555237478,"German 1 yr, Spanish 3 yrs.","American English","VSH_Exp2","2016_Feb_23_1835",NA
"Recordings/fasa.wav","no","f","s","a","no","a","fasa","Test","bilabial","NewConsTestStimuli",NA,NA,NA,NA,0,56,56,18,NA,NA,NA,NA,"Yes",1.071,12,"M",22,59.8555237478,"German 1 yr, Spanish 3 yrs.","American English","VSH_Exp2","2016_Feb_23_1835",NA
"Recordings/zada.wav","yes","z","d","a","no","a","zada","Controls","alveolar","VoicingControls",NA,NA,NA,NA,0,57,57,40,NA,NA,NA,NA,"No",1.154,12,"M",22,59.8555237478,"German 1 yr, Spanish 3 yrs.","American English","VSH_Exp2","2016_Feb_23_1835",NA
"Recordings/dibi.wav","yes","d","b","i","yes","i","dibi","Test","alveolar","OldTestStimuli",NA,NA,NA,NA,0,58,58,8,NA,NA,NA,NA,"No",4.541,12,"M",22,59.8555237478,"German 1 yr, Spanish 3 yrs.","American English","VSH_Exp2","2016_Feb_23_1835",NA
"Recordings/ditu.wav","yes","d","t","i","yes","u","ditu","Controls","alveolar","StopControls",NA,NA,NA,NA,0,59,59,34,NA,NA,NA,NA,"No",1.955,12,"M",22,59.8555237478,"German 1 yr, Spanish 3 yrs.","American English","VSH_Exp2","2016_Feb_23_1835",NA
