"SOUND","VOICING","SEGMENT","SEGMENT3","SEGMENT2","STOP","SEGMENT4","STIMULUS","GENERAL_TYPE","PLACE","TYPE","trials.thisRepN","trials.thisTrialN","trials.thisN","trials.thisIndex","trials_2.thisRepN","trials_2.thisTrialN","trials_2.thisN","trials_2.thisIndex","SpaceBar.keys","SpaceBar.rt","key_resp_2.keys","key_resp_2.rt","rating.response","rating.rt","participant","Gender","Age","frameRate","OtherLanguages","NativeLanguage","expName","date","X34"
NA,NA,NA,NA,NA,NA,NA,NA,NA,NA,NA,NA,NA,NA,NA,NA,NA,NA,NA,"space",5.30690383911,NA,NA,NA,NA,130,"M",20,59.9218814736,"None","American English","VSH_Exp2","2016_Mar_24_1518",NA
"Recordings/sufi.wav","no","s","f","u","no","i","sufi","Training","alveolar","TrainingItems",0,0,0,39,NA,NA,NA,NA,NA,NA,NA,NA,NA,NA,130,"M",20,59.9218814736,"None","American English","VSH_Exp2","2016_Mar_24_1518",NA
"Recordings/zizu.wav","yes","z","z","i","no","u","zizu","Training","alveolar","TrainingItems",0,1,1,97,NA,NA,NA,NA,NA,NA,NA,NA,NA,NA,130,"M",20,59.9218814736,"None","American English","VSH_Exp2","2016_Mar_24_1518",NA
"Recordings/pupi.wav","no","p","p","u","yes","i","pupi","Training","bilabial","TrainingItems",0,2,2,25,NA,NA,NA,NA,NA,NA,NA,NA,NA,NA,130,"M",20,59.9218814736,"None","American English","VSH_Exp2","2016_Mar_24_1518",NA
"Recordings/dudi.wav","yes","d","d","u","yes","i","dudi","Training","alveolar","TrainingItems",0,3,3,37,NA,NA,NA,NA,NA,NA,NA,NA,NA,NA,130,"M",20,59.9218814736,"None","American English","VSH_Exp2","2016_Mar_24_1518",NA
"Recordings/diba.wav","yes","d","b","i","yes","a","diba","Training","alveolar","TrainingItems",0,4,4,92,NA,NA,NA,NA,NA,NA,NA,NA,NA,NA,130,"M",20,59.9218814736,"None","American English","VSH_Exp2","2016_Mar_24_1518",NA
"Recordings/bada.wav","yes","b","d","a","yes","a","bada","Training","bilabial","TrainingItems",0,5,5,75,NA,NA,NA,NA,NA,NA,NA,NA,NA,NA,130,"M",20,59.9218814736,"None","American English","VSH_Exp2","2016_Mar_24_1518",NA
"Recordings/fifu.wav","no","f","f","i","no","u","fifu","Training","bilabial","TrainingItems",0,6,6,65,NA,NA,NA,NA,NA,NA,NA,NA,NA,NA,130,"M",20,59.9218814736,"None","American English","VSH_Exp2","2016_Mar_24_1518",NA
"Recordings/fufu.wav","no","f","f","u","no","u","fufu","Training","bilabial","TrainingItems",0,7,7,56,NA,NA,NA,NA,NA,NA,NA,NA,NA,NA,130,"M",20,59.9218814736,"None","American English","VSH_Exp2","2016_Mar_24_1518",NA
"Recordings/vava.wav","yes","v","v","a","no","a","vava","Training","bilabial","TrainingItems",0,8,8,85,NA,NA,NA,NA,NA,NA,NA,NA,NA,NA,130,"M",20,59.9218814736,"None","American English","VSH_Exp2","2016_Mar_24_1518",NA
"Recordings/viva.wav","yes","v","v","i","no","a","viva","Training","bilabial","TrainingItems",0,9,9,80,NA,NA,NA,NA,NA,NA,NA,NA,NA,NA,130,"M",20,59.9218814736,"None","American English","VSH_Exp2","2016_Mar_24_1518",NA
"Recordings/fasi.wav","no","f","s","a","no","i","fasi","Training","bilabial","TrainingItems",0,10,10,64,NA,NA,NA,NA,NA,NA,NA,NA,NA,NA,130,"M",20,59.9218814736,"None","American English","VSH_Exp2","2016_Mar_24_1518",NA
"Recordings/pipa.wav","no","p","p","i","yes","a","pipa","Training","bilabial","TrainingItems",0,11,11,7,NA,NA,NA,NA,NA,NA,NA,NA,NA,NA,130,"M",20,59.9218814736,"None","American English","VSH_Exp2","2016_Mar_24_1518",NA
"Recordings/tipu.wav","no","t","p","i","yes","u","tipu","Training","alveolar","TrainingItems",0,12,12,44,NA,NA,NA,NA,NA,NA,NA,NA,NA,NA,130,"M",20,59.9218814736,"None","American English","VSH_Exp2","2016_Mar_24_1518",NA
"Recordings/dida.wav","yes","d","d","i","yes","a","dida","Training","alveolar","TrainingItems",0,13,13,47,NA,NA,NA,NA,NA,NA,NA,NA,NA,NA,130,"M",20,59.9218814736,"None","American English","VSH_Exp2","2016_Mar_24_1518",NA
"Recordings/fafu.wav","no","f","f","a","no","u","fafu","Training","bilabial","TrainingItems",0,14,14,54,NA,NA,NA,NA,NA,NA,NA,NA,NA,NA,130,"M",20,59.9218814736,"None","American English","VSH_Exp2","2016_Mar_24_1518",NA
"Recordings/bida.wav","yes","b","d","i","yes","a","bida","Training","bilabial","TrainingItems",0,15,15,87,NA,NA,NA,NA,NA,NA,NA,NA,NA,NA,130,"M",20,59.9218814736,"None","American English","VSH_Exp2","2016_Mar_24_1518",NA
"Recordings/sifi.wav","no","s","f","i","no","i","sifi","Training","alveolar","TrainingItems",0,16,16,42,NA,NA,NA,NA,NA,NA,NA,NA,NA,NA,130,"M",20,59.9218814736,"None","American English","VSH_Exp2","2016_Mar_24_1518",NA
"Recordings/tata.wav","no","t","t","a","yes","a","tata","Training","alveolar","TrainingItems",0,17,17,82,NA,NA,NA,NA,NA,NA,NA,NA,NA,NA,130,"M",20,59.9218814736,"None","American English","VSH_Exp2","2016_Mar_24_1518",NA
"Recordings/tipa.wav","no","t","p","i","yes","a","tipa","Training","alveolar","TrainingItems",0,18,18,61,NA,NA,NA,NA,NA,NA,NA,NA,NA,NA,130,"M",20,59.9218814736,"None","American English","VSH_Exp2","2016_Mar_24_1518",NA
"Recordings/dada.wav","yes","d","d","a","yes","a","dada","Training","alveolar","TrainingItems",0,19,19,73,NA,NA,NA,NA,NA,NA,NA,NA,NA,NA,130,"M",20,59.9218814736,"None","American English","VSH_Exp2","2016_Mar_24_1518",NA
"Recordings/zuzu.wav","yes","z","z","u","no","u","zuzu","Training","alveolar","TrainingItems",0,20,20,45,NA,NA,NA,NA,NA,NA,NA,NA,NA,NA,130,"M",20,59.9218814736,"None","American English","VSH_Exp2","2016_Mar_24_1518",NA
"Recordings/babu.wav","yes","b","b","a","yes","u","babu","Training","bilabial","TrainingItems",0,21,21,34,NA,NA,NA,NA,NA,NA,NA,NA,NA,NA,130,"M",20,59.9218814736,"None","American English","VSH_Exp2","2016_Mar_24_1518",NA
"Recordings/papa.wav","no","p","p","a","yes","a","papa","Training","bilabial","TrainingItems",0,22,22,86,NA,NA,NA,NA,NA,NA,NA,NA,NA,NA,130,"M",20,59.9218814736,"None","American English","VSH_Exp2","2016_Mar_24_1518",NA
"Recordings/fusu.wav","no","f","s","u","no","u","fusu","Training","bilabial","TrainingItems",0,23,23,99,NA,NA,NA,NA,NA,NA,NA,NA,NA,NA,130,"M",20,59.9218814736,"None","American English","VSH_Exp2","2016_Mar_24_1518",NA
"Recordings/sisa.wav","no","s","s","i","no","a","sisa","Training","alveolar","TrainingItems",0,24,24,90,NA,NA,NA,NA,NA,NA,NA,NA,NA,NA,130,"M",20,59.9218814736,"None","American English","VSH_Exp2","2016_Mar_24_1518",NA
"Recordings/vavi.wav","yes","v","v","a","no","i","vavi","Training","bilabial","TrainingItems",0,25,25,71,NA,NA,NA,NA,NA,NA,NA,NA,NA,NA,130,"M",20,59.9218814736,"None","American English","VSH_Exp2","2016_Mar_24_1518",NA
"Recordings/fisi.wav","no","f","s","i","no","i","fisi","Training","bilabial","TrainingItems",0,26,26,2,NA,NA,NA,NA,NA,NA,NA,NA,NA,NA,130,"M",20,59.9218814736,"None","American English","VSH_Exp2","2016_Mar_24_1518",NA
"Recordings/daba.wav","yes","d","b","a","yes","a","daba","Training","alveolar","TrainingItems",0,27,27,84,NA,NA,NA,NA,NA,NA,NA,NA,NA,NA,130,"M",20,59.9218814736,"None","American English","VSH_Exp2","2016_Mar_24_1518",NA
"Recordings/vuvu.wav","yes","v","v","u","no","u","vuvu","Training","bilabial","TrainingItems",0,28,28,9,NA,NA,NA,NA,NA,NA,NA,NA,NA,NA,130,"M",20,59.9218814736,"None","American English","VSH_Exp2","2016_Mar_24_1518",NA
"Recordings/tupi.wav","no","t","p","u","yes","i","tupi","Training","alveolar","TrainingItems",0,29,29,63,NA,NA,NA,NA,NA,NA,NA,NA,NA,NA,130,"M",20,59.9218814736,"None","American English","VSH_Exp2","2016_Mar_24_1518",NA
"Recordings/badu.wav","yes","b","d","a","yes","u","badu","Training","bilabial","TrainingItems",0,30,30,52,NA,NA,NA,NA,NA,NA,NA,NA,NA,NA,130,"M",20,59.9218814736,"None","American English","VSH_Exp2","2016_Mar_24_1518",NA
"Recordings/sufa.wav","no","s","f","u","no","a","sufa","Training","alveolar","TrainingItems",0,31,31,13,NA,NA,NA,NA,NA,NA,NA,NA,NA,NA,130,"M",20,59.9218814736,"None","American English","VSH_Exp2","2016_Mar_24_1518",NA
"Recordings/budi.wav","yes","b","d","u","yes","i","budi","Training","bilabial","TrainingItems",0,32,32,15,NA,NA,NA,NA,NA,NA,NA,NA,NA,NA,130,"M",20,59.9218814736,"None","American English","VSH_Exp2","2016_Mar_24_1518",NA
"Recordings/buda.wav","yes","b","d","u","yes","a","buda","Training","bilabial","TrainingItems",0,33,33,35,NA,NA,NA,NA,NA,NA,NA,NA,NA,NA,130,"M",20,59.9218814736,"None","American English","VSH_Exp2","2016_Mar_24_1518",NA
"Recordings/fufi.wav","no","f","f","u","no","i","fufi","Training","bilabial","TrainingItems",0,34,34,50,NA,NA,NA,NA,NA,NA,NA,NA,NA,NA,130,"M",20,59.9218814736,"None","American English","VSH_Exp2","2016_Mar_24_1518",NA
"Recordings/duba.wav","yes","d","b","u","yes","a","duba","Training","alveolar","TrainingItems",0,35,35,59,NA,NA,NA,NA,NA,NA,NA,NA,NA,NA,130,"M",20,59.9218814736,"None","American English","VSH_Exp2","2016_Mar_24_1518",NA
"Recordings/fafi.wav","no","f","f","a","no","i","fafi","Training","bilabial","TrainingItems",0,36,36,55,NA,NA,NA,NA,NA,NA,NA,NA,NA,NA,130,"M",20,59.9218814736,"None","American English","VSH_Exp2","2016_Mar_24_1518",NA
"Recordings/susa.wav","no","s","s","u","no","a","susa","Training","alveolar","TrainingItems",0,37,37,62,NA,NA,NA,NA,NA,NA,NA,NA,NA,NA,130,"M",20,59.9218814736,"None","American English","VSH_Exp2","2016_Mar_24_1518",NA
"Recordings/dubu.wav","yes","d","b","u","yes","u","dubu","Training","alveolar","TrainingItems",0,38,38,76,NA,NA,NA,NA,NA,NA,NA,NA,NA,NA,130,"M",20,59.9218814736,"None","American English","VSH_Exp2","2016_Mar_24_1518",NA
"Recordings/pipi.wav","no","p","p","i","yes","i","pipi","Training","bilabial","TrainingItems",0,39,39,28,NA,NA,NA,NA,NA,NA,NA,NA,NA,NA,130,"M",20,59.9218814736,"None","American English","VSH_Exp2","2016_Mar_24_1518",NA
"Recordings/tatu.wav","no","t","t","a","yes","u","tatu","Training","alveolar","TrainingItems",0,40,40,21,NA,NA,NA,NA,NA,NA,NA,NA,NA,NA,130,"M",20,59.9218814736,"None","American English","VSH_Exp2","2016_Mar_24_1518",NA
"Recordings/vuva.wav","yes","v","v","u","no","a","vuva","Training","bilabial","TrainingItems",0,41,41,4,NA,NA,NA,NA,NA,NA,NA,NA,NA,NA,130,"M",20,59.9218814736,"None","American English","VSH_Exp2","2016_Mar_24_1518",NA
"Recordings/didu.wav","yes","d","d","i","yes","u","didu","Training","alveolar","TrainingItems",0,42,42,23,NA,NA,NA,NA,NA,NA,NA,NA,NA,NA,130,"M",20,59.9218814736,"None","American English","VSH_Exp2","2016_Mar_24_1518",NA
"Recordings/bubu.wav","yes","b","b","u","yes","u","bubu","Training","bilabial","TrainingItems",0,43,43,6,NA,NA,NA,NA,NA,NA,NA,NA,NA,NA,130,"M",20,59.9218814736,"None","American English","VSH_Exp2","2016_Mar_24_1518",NA
"Recordings/sisi.wav","no","s","s","i","no","i","sisi","Training","alveolar","TrainingItems",0,44,44,19,NA,NA,NA,NA,NA,NA,NA,NA,NA,NA,130,"M",20,59.9218814736,"None","American English","VSH_Exp2","2016_Mar_24_1518",NA
"Recordings/tuti.wav","no","t","t","u","yes","i","tuti","Training","alveolar","TrainingItems",0,45,45,3,NA,NA,NA,NA,NA,NA,NA,NA,NA,NA,130,"M",20,59.9218814736,"None","American English","VSH_Exp2","2016_Mar_24_1518",NA
"Recordings/fusa.wav","no","f","s","u","no","a","fusa","Training","bilabial","TrainingItems",0,46,46,83,NA,NA,NA,NA,NA,NA,NA,NA,NA,NA,130,"M",20,59.9218814736,"None","American English","VSH_Exp2","2016_Mar_24_1518",NA
"Recordings/patu.wav","no","p","t","a","yes","u","patu","Training","bilabial","TrainingItems",0,47,47,57,NA,NA,NA,NA,NA,NA,NA,NA,NA,NA,130,"M",20,59.9218814736,"None","American English","VSH_Exp2","2016_Mar_24_1518",NA
"Recordings/putu.wav","no","p","t","u","yes","u","putu","Training","bilabial","TrainingItems",0,48,48,77,NA,NA,NA,NA,NA,NA,NA,NA,NA,NA,130,"M",20,59.9218814736,"None","American English","VSH_Exp2","2016_Mar_24_1518",NA
"Recordings/pitu.wav","no","p","t","i","yes","u","pitu","Training","bilabial","TrainingItems",0,49,49,58,NA,NA,NA,NA,NA,NA,NA,NA,NA,NA,130,"M",20,59.9218814736,"None","American English","VSH_Exp2","2016_Mar_24_1518",NA
"Recordings/tapu.wav","no","t","p","a","yes","u","tapu","Training","alveolar","TrainingItems",0,50,50,8,NA,NA,NA,NA,NA,NA,NA,NA,NA,NA,130,"M",20,59.9218814736,"None","American English","VSH_Exp2","2016_Mar_24_1518",NA
"Recordings/tupu.wav","no","t","p","u","yes","u","tupu","Training","alveolar","TrainingItems",0,51,51,30,NA,NA,NA,NA,NA,NA,NA,NA,NA,NA,130,"M",20,59.9218814736,"None","American English","VSH_Exp2","2016_Mar_24_1518",NA
"Recordings/fusi.wav","no","f","s","u","no","i","fusi","Training","bilabial","TrainingItems",0,52,52,40,NA,NA,NA,NA,NA,NA,NA,NA,NA,NA,130,"M",20,59.9218814736,"None","American English","VSH_Exp2","2016_Mar_24_1518",NA
"Recordings/zazi.wav","yes","z","z","a","no","i","zazi","Training","alveolar","TrainingItems",0,53,53,18,NA,NA,NA,NA,NA,NA,NA,NA,NA,NA,130,"M",20,59.9218814736,"None","American English","VSH_Exp2","2016_Mar_24_1518",NA
"Recordings/tuta.wav","no","t","t","u","yes","a","tuta","Training","alveolar","TrainingItems",0,54,54,95,NA,NA,NA,NA,NA,NA,NA,NA,NA,NA,130,"M",20,59.9218814736,"None","American English","VSH_Exp2","2016_Mar_24_1518",NA
"Recordings/tita.wav","no","t","t","i","yes","a","tita","Training","alveolar","TrainingItems",0,55,55,72,NA,NA,NA,NA,NA,NA,NA,NA,NA,NA,130,"M",20,59.9218814736,"None","American English","VSH_Exp2","2016_Mar_24_1518",NA
"Recordings/bubi.wav","yes","b","b","u","yes","i","bubi","Training","bilabial","TrainingItems",0,56,56,79,NA,NA,NA,NA,NA,NA,NA,NA,NA,NA,130,"M",20,59.9218814736,"None","American English","VSH_Exp2","2016_Mar_24_1518",NA
"Recordings/sasa.wav","no","s","s","a","no","a","sasa","Training","alveolar","TrainingItems",0,57,57,53,NA,NA,NA,NA,NA,NA,NA,NA,NA,NA,130,"M",20,59.9218814736,"None","American English","VSH_Exp2","2016_Mar_24_1518",NA
"Recordings/pata.wav","no","p","t","a","yes","a","pata","Training","bilabial","TrainingItems",0,58,58,38,NA,NA,NA,NA,NA,NA,NA,NA,NA,NA,130,"M",20,59.9218814736,"None","American English","VSH_Exp2","2016_Mar_24_1518",NA
"Recordings/pupa.wav","no","p","p","u","yes","a","pupa","Training","bilabial","TrainingItems",0,59,59,51,NA,NA,NA,NA,NA,NA,NA,NA,NA,NA,130,"M",20,59.9218814736,"None","American English","VSH_Exp2","2016_Mar_24_1518",NA
"Recordings/pita.wav","no","p","t","i","yes","a","pita","Training","bilabial","TrainingItems",0,60,60,69,NA,NA,NA,NA,NA,NA,NA,NA,NA,NA,130,"M",20,59.9218814736,"None","American English","VSH_Exp2","2016_Mar_24_1518",NA
"Recordings/sasu.wav","no","s","s","a","no","u","sasu","Training","alveolar","TrainingItems",0,61,61,0,NA,NA,NA,NA,NA,NA,NA,NA,NA,NA,130,"M",20,59.9218814736,"None","American English","VSH_Exp2","2016_Mar_24_1518",NA
"Recordings/babi.wav","yes","b","b","a","yes","i","babi","Training","bilabial","TrainingItems",0,62,62,68,NA,NA,NA,NA,NA,NA,NA,NA,NA,NA,130,"M",20,59.9218814736,"None","American English","VSH_Exp2","2016_Mar_24_1518",NA
"Recordings/biba.wav","yes","b","b","i","yes","a","biba","Training","bilabial","TrainingItems",0,63,63,96,NA,NA,NA,NA,NA,NA,NA,NA,NA,NA,130,"M",20,59.9218814736,"None","American English","VSH_Exp2","2016_Mar_24_1518",NA
"Recordings/sasi.wav","no","s","s","a","no","i","sasi","Training","alveolar","TrainingItems",0,64,64,17,NA,NA,NA,NA,NA,NA,NA,NA,NA,NA,130,"M",20,59.9218814736,"None","American English","VSH_Exp2","2016_Mar_24_1518",NA
"Recordings/bidu.wav","yes","b","d","i","yes","u","bidu","Training","bilabial","TrainingItems",0,65,65,78,NA,NA,NA,NA,NA,NA,NA,NA,NA,NA,130,"M",20,59.9218814736,"None","American English","VSH_Exp2","2016_Mar_24_1518",NA
"Recordings/sifu.wav","no","s","f","i","no","u","sifu","Training","alveolar","TrainingItems",0,66,66,20,NA,NA,NA,NA,NA,NA,NA,NA,NA,NA,130,"M",20,59.9218814736,"None","American English","VSH_Exp2","2016_Mar_24_1518",NA
"Recordings/zaza.wav","yes","z","z","a","no","a","zaza","Training","alveolar","TrainingItems",0,67,67,32,NA,NA,NA,NA,NA,NA,NA,NA,NA,NA,130,"M",20,59.9218814736,"None","American English","VSH_Exp2","2016_Mar_24_1518",NA
"Recordings/bibi.wav","yes","b","b","i","yes","i","bibi","Training","bilabial","TrainingItems",0,68,68,29,NA,NA,NA,NA,NA,NA,NA,NA,NA,NA,130,"M",20,59.9218814736,"None","American English","VSH_Exp2","2016_Mar_24_1518",NA
"Recordings/vuvi.wav","yes","v","v","u","no","i","vuvi","Training","bilabial","TrainingItems",0,69,69,1,NA,NA,NA,NA,NA,NA,NA,NA,NA,NA,130,"M",20,59.9218814736,"None","American English","VSH_Exp2","2016_Mar_24_1518",NA
"Recordings/fasu.wav","no","f","s","a","no","u","fasu","Training","bilabial","TrainingItems",0,70,70,12,NA,NA,NA,NA,NA,NA,NA,NA,NA,NA,130,"M",20,59.9218814736,"None","American English","VSH_Exp2","2016_Mar_24_1518",NA
"Recordings/baba.wav","yes","b","b","a","yes","a","baba","Training","bilabial","TrainingItems",0,71,71,22,NA,NA,NA,NA,NA,NA,NA,NA,NA,NA,130,"M",20,59.9218814736,"None","American English","VSH_Exp2","2016_Mar_24_1518",NA
"Recordings/fifi.wav","no","f","f","i","no","i","fifi","Training","bilabial","TrainingItems",0,72,72,31,NA,NA,NA,NA,NA,NA,NA,NA,NA,NA,130,"M",20,59.9218814736,"None","American English","VSH_Exp2","2016_Mar_24_1518",NA
"Recordings/duda.wav","yes","d","d","u","yes","a","duda","Training","alveolar","TrainingItems",0,73,73,5,NA,NA,NA,NA,NA,NA,NA,NA,NA,NA,130,"M",20,59.9218814736,"None","American English","VSH_Exp2","2016_Mar_24_1518",NA
"Recordings/vivi.wav","yes","v","v","i","no","i","vivi","Training","bilabial","TrainingItems",0,74,74,81,NA,NA,NA,NA,NA,NA,NA,NA,NA,NA,130,"M",20,59.9218814736,"None","American English","VSH_Exp2","2016_Mar_24_1518",NA
"Recordings/dudu.wav","yes","d","d","u","yes","u","dudu","Training","alveolar","TrainingItems",0,75,75,88,NA,NA,NA,NA,NA,NA,NA,NA,NA,NA,130,"M",20,59.9218814736,"None","American English","VSH_Exp2","2016_Mar_24_1518",NA
"Recordings/vavu.wav","yes","v","v","a","no","u","vavu","Training","bilabial","TrainingItems",0,76,76,91,NA,NA,NA,NA,NA,NA,NA,NA,NA,NA,130,"M",20,59.9218814736,"None","American English","VSH_Exp2","2016_Mar_24_1518",NA
"Recordings/tipi.wav","no","t","p","i","yes","i","tipi","Training","alveolar","TrainingItems",0,77,77,60,NA,NA,NA,NA,NA,NA,NA,NA,NA,NA,130,"M",20,59.9218814736,"None","American English","VSH_Exp2","2016_Mar_24_1518",NA
"Recordings/tutu.wav","no","t","t","u","yes","u","tutu","Training","alveolar","TrainingItems",0,78,78,43,NA,NA,NA,NA,NA,NA,NA,NA,NA,NA,130,"M",20,59.9218814736,"None","American English","VSH_Exp2","2016_Mar_24_1518",NA
"Recordings/tapa.wav","no","t","p","a","yes","a","tapa","Training","alveolar","TrainingItems",0,79,79,74,NA,NA,NA,NA,NA,NA,NA,NA,NA,NA,130,"M",20,59.9218814736,"None","American English","VSH_Exp2","2016_Mar_24_1518",NA
"Recordings/safa.wav","no","s","f","a","no","a","safa","Training","alveolar","TrainingItems",0,80,80,67,NA,NA,NA,NA,NA,NA,NA,NA,NA,NA,130,"M",20,59.9218814736,"None","American English","VSH_Exp2","2016_Mar_24_1518",NA
"Recordings/papi.wav","no","p","p","a","yes","i","papi","Training","bilabial","TrainingItems",0,81,81,16,NA,NA,NA,NA,NA,NA,NA,NA,NA,NA,130,"M",20,59.9218814736,"None","American English","VSH_Exp2","2016_Mar_24_1518",NA
"Recordings/pati.wav","no","p","t","a","yes","i","pati","Training","bilabial","TrainingItems",0,82,82,98,NA,NA,NA,NA,NA,NA,NA,NA,NA,NA,130,"M",20,59.9218814736,"None","American English","VSH_Exp2","2016_Mar_24_1518",NA
"Recordings/sufu.wav","no","s","f","u","no","u","sufu","Training","alveolar","TrainingItems",0,83,83,49,NA,NA,NA,NA,NA,NA,NA,NA,NA,NA,130,"M",20,59.9218814736,"None","American English","VSH_Exp2","2016_Mar_24_1518",NA
"Recordings/susi.wav","no","s","s","u","no","i","susi","Training","alveolar","TrainingItems",0,84,84,33,NA,NA,NA,NA,NA,NA,NA,NA,NA,NA,130,"M",20,59.9218814736,"None","American English","VSH_Exp2","2016_Mar_24_1518",NA
"Recordings/vivu.wav","yes","v","v","i","no","u","vivu","Training","bilabial","TrainingItems",0,85,85,27,NA,NA,NA,NA,NA,NA,NA,NA,NA,NA,130,"M",20,59.9218814736,"None","American English","VSH_Exp2","2016_Mar_24_1518",NA
"Recordings/pupu.wav","no","p","p","u","yes","u","pupu","Training","bilabial","TrainingItems",0,86,86,24,NA,NA,NA,NA,NA,NA,NA,NA,NA,NA,130,"M",20,59.9218814736,"None","American English","VSH_Exp2","2016_Mar_24_1518",NA
"Recordings/ziza.wav","yes","z","z","i","no","a","ziza","Training","alveolar","TrainingItems",0,87,87,48,NA,NA,NA,NA,NA,NA,NA,NA,NA,NA,130,"M",20,59.9218814736,"None","American English","VSH_Exp2","2016_Mar_24_1518",NA
"Recordings/zuza.wav","yes","z","z","u","no","a","zuza","Training","alveolar","TrainingItems",0,88,88,14,NA,NA,NA,NA,NA,NA,NA,NA,NA,NA,130,"M",20,59.9218814736,"None","American English","VSH_Exp2","2016_Mar_24_1518",NA
"Recordings/tati.wav","no","t","t","a","yes","i","tati","Training","alveolar","TrainingItems",0,89,89,93,NA,NA,NA,NA,NA,NA,NA,NA,NA,NA,130,"M",20,59.9218814736,"None","American English","VSH_Exp2","2016_Mar_24_1518",NA
"Recordings/dibu.wav","yes","d","b","i","yes","u","dibu","Training","alveolar","TrainingItems",0,90,90,89,NA,NA,NA,NA,NA,NA,NA,NA,NA,NA,130,"M",20,59.9218814736,"None","American English","VSH_Exp2","2016_Mar_24_1518",NA
"Recordings/dabu.wav","yes","d","b","a","yes","u","dabu","Training","alveolar","TrainingItems",0,91,91,36,NA,NA,NA,NA,NA,NA,NA,NA,NA,NA,130,"M",20,59.9218814736,"None","American English","VSH_Exp2","2016_Mar_24_1518",NA
"Recordings/bidi.wav","yes","b","d","i","yes","i","bidi","Training","bilabial","TrainingItems",0,92,92,26,NA,NA,NA,NA,NA,NA,NA,NA,NA,NA,130,"M",20,59.9218814736,"None","American English","VSH_Exp2","2016_Mar_24_1518",NA
"Recordings/buba.wav","yes","b","b","u","yes","a","buba","Training","bilabial","TrainingItems",0,93,93,11,NA,NA,NA,NA,NA,NA,NA,NA,NA,NA,130,"M",20,59.9218814736,"None","American English","VSH_Exp2","2016_Mar_24_1518",NA
"Recordings/sifa.wav","no","s","f","i","no","a","sifa","Training","alveolar","TrainingItems",0,94,94,46,NA,NA,NA,NA,NA,NA,NA,NA,NA,NA,130,"M",20,59.9218814736,"None","American English","VSH_Exp2","2016_Mar_24_1518",NA
"Recordings/safi.wav","no","s","f","a","no","i","safi","Training","alveolar","TrainingItems",0,95,95,66,NA,NA,NA,NA,NA,NA,NA,NA,NA,NA,130,"M",20,59.9218814736,"None","American English","VSH_Exp2","2016_Mar_24_1518",NA
"Recordings/dadu.wav","yes","d","d","a","yes","u","dadu","Training","alveolar","TrainingItems",0,96,96,94,NA,NA,NA,NA,NA,NA,NA,NA,NA,NA,130,"M",20,59.9218814736,"None","American English","VSH_Exp2","2016_Mar_24_1518",NA
"Recordings/fisa.wav","no","f","s","i","no","a","fisa","Training","bilabial","TrainingItems",0,97,97,10,NA,NA,NA,NA,NA,NA,NA,NA,NA,NA,130,"M",20,59.9218814736,"None","American English","VSH_Exp2","2016_Mar_24_1518",NA
"Recordings/dubi.wav","yes","d","b","u","yes","i","dubi","Training","alveolar","TrainingItems",0,98,98,41,NA,NA,NA,NA,NA,NA,NA,NA,NA,NA,130,"M",20,59.9218814736,"None","American English","VSH_Exp2","2016_Mar_24_1518",NA
"Recordings/dabi.wav","yes","d","b","a","yes","i","dabi","Training","alveolar","TrainingItems",0,99,99,70,NA,NA,NA,NA,NA,NA,NA,NA,NA,NA,130,"M",20,59.9218814736,"None","American English","VSH_Exp2","2016_Mar_24_1518",NA
"Recordings/didu.wav","yes","d","d","i","yes","u","didu","Training","alveolar","TrainingItems",1,0,100,23,NA,NA,NA,NA,NA,NA,NA,NA,NA,NA,130,"M",20,59.9218814736,"None","American English","VSH_Exp2","2016_Mar_24_1518",NA
"Recordings/vivu.wav","yes","v","v","i","no","u","vivu","Training","bilabial","TrainingItems",1,1,101,27,NA,NA,NA,NA,NA,NA,NA,NA,NA,NA,130,"M",20,59.9218814736,"None","American English","VSH_Exp2","2016_Mar_24_1518",NA
"Recordings/tupi.wav","no","t","p","u","yes","i","tupi","Training","alveolar","TrainingItems",1,2,102,63,NA,NA,NA,NA,NA,NA,NA,NA,NA,NA,130,"M",20,59.9218814736,"None","American English","VSH_Exp2","2016_Mar_24_1518",NA
"Recordings/safi.wav","no","s","f","a","no","i","safi","Training","alveolar","TrainingItems",1,3,103,66,NA,NA,NA,NA,NA,NA,NA,NA,NA,NA,130,"M",20,59.9218814736,"None","American English","VSH_Exp2","2016_Mar_24_1518",NA
"Recordings/tati.wav","no","t","t","a","yes","i","tati","Training","alveolar","TrainingItems",1,4,104,93,NA,NA,NA,NA,NA,NA,NA,NA,NA,NA,130,"M",20,59.9218814736,"None","American English","VSH_Exp2","2016_Mar_24_1518",NA
"Recordings/sifi.wav","no","s","f","i","no","i","sifi","Training","alveolar","TrainingItems",1,5,105,42,NA,NA,NA,NA,NA,NA,NA,NA,NA,NA,130,"M",20,59.9218814736,"None","American English","VSH_Exp2","2016_Mar_24_1518",NA
"Recordings/pupu.wav","no","p","p","u","yes","u","pupu","Training","bilabial","TrainingItems",1,6,106,24,NA,NA,NA,NA,NA,NA,NA,NA,NA,NA,130,"M",20,59.9218814736,"None","American English","VSH_Exp2","2016_Mar_24_1518",NA
"Recordings/fifi.wav","no","f","f","i","no","i","fifi","Training","bilabial","TrainingItems",1,7,107,31,NA,NA,NA,NA,NA,NA,NA,NA,NA,NA,130,"M",20,59.9218814736,"None","American English","VSH_Exp2","2016_Mar_24_1518",NA
"Recordings/pitu.wav","no","p","t","i","yes","u","pitu","Training","bilabial","TrainingItems",1,8,108,58,NA,NA,NA,NA,NA,NA,NA,NA,NA,NA,130,"M",20,59.9218814736,"None","American English","VSH_Exp2","2016_Mar_24_1518",NA
"Recordings/tapu.wav","no","t","p","a","yes","u","tapu","Training","alveolar","TrainingItems",1,9,109,8,NA,NA,NA,NA,NA,NA,NA,NA,NA,NA,130,"M",20,59.9218814736,"None","American English","VSH_Exp2","2016_Mar_24_1518",NA
"Recordings/fafu.wav","no","f","f","a","no","u","fafu","Training","bilabial","TrainingItems",1,10,110,54,NA,NA,NA,NA,NA,NA,NA,NA,NA,NA,130,"M",20,59.9218814736,"None","American English","VSH_Exp2","2016_Mar_24_1518",NA
"Recordings/fufu.wav","no","f","f","u","no","u","fufu","Training","bilabial","TrainingItems",1,11,111,56,NA,NA,NA,NA,NA,NA,NA,NA,NA,NA,130,"M",20,59.9218814736,"None","American English","VSH_Exp2","2016_Mar_24_1518",NA
"Recordings/sasa.wav","no","s","s","a","no","a","sasa","Training","alveolar","TrainingItems",1,12,112,53,NA,NA,NA,NA,NA,NA,NA,NA,NA,NA,130,"M",20,59.9218814736,"None","American English","VSH_Exp2","2016_Mar_24_1518",NA
"Recordings/sisa.wav","no","s","s","i","no","a","sisa","Training","alveolar","TrainingItems",1,13,113,90,NA,NA,NA,NA,NA,NA,NA,NA,NA,NA,130,"M",20,59.9218814736,"None","American English","VSH_Exp2","2016_Mar_24_1518",NA
"Recordings/duda.wav","yes","d","d","u","yes","a","duda","Training","alveolar","TrainingItems",1,14,114,5,NA,NA,NA,NA,NA,NA,NA,NA,NA,NA,130,"M",20,59.9218814736,"None","American English","VSH_Exp2","2016_Mar_24_1518",NA
"Recordings/putu.wav","no","p","t","u","yes","u","putu","Training","bilabial","TrainingItems",1,15,115,77,NA,NA,NA,NA,NA,NA,NA,NA,NA,NA,130,"M",20,59.9218814736,"None","American English","VSH_Exp2","2016_Mar_24_1518",NA
"Recordings/fisa.wav","no","f","s","i","no","a","fisa","Training","bilabial","TrainingItems",1,16,116,10,NA,NA,NA,NA,NA,NA,NA,NA,NA,NA,130,"M",20,59.9218814736,"None","American English","VSH_Exp2","2016_Mar_24_1518",NA
"Recordings/tipi.wav","no","t","p","i","yes","i","tipi","Training","alveolar","TrainingItems",1,17,117,60,NA,NA,NA,NA,NA,NA,NA,NA,NA,NA,130,"M",20,59.9218814736,"None","American English","VSH_Exp2","2016_Mar_24_1518",NA
"Recordings/pipa.wav","no","p","p","i","yes","a","pipa","Training","bilabial","TrainingItems",1,18,118,7,NA,NA,NA,NA,NA,NA,NA,NA,NA,NA,130,"M",20,59.9218814736,"None","American English","VSH_Exp2","2016_Mar_24_1518",NA
"Recordings/papi.wav","no","p","p","a","yes","i","papi","Training","bilabial","TrainingItems",1,19,119,16,NA,NA,NA,NA,NA,NA,NA,NA,NA,NA,130,"M",20,59.9218814736,"None","American English","VSH_Exp2","2016_Mar_24_1518",NA
"Recordings/sifa.wav","no","s","f","i","no","a","sifa","Training","alveolar","TrainingItems",1,20,120,46,NA,NA,NA,NA,NA,NA,NA,NA,NA,NA,130,"M",20,59.9218814736,"None","American English","VSH_Exp2","2016_Mar_24_1518",NA
"Recordings/sisi.wav","no","s","s","i","no","i","sisi","Training","alveolar","TrainingItems",1,21,121,19,NA,NA,NA,NA,NA,NA,NA,NA,NA,NA,130,"M",20,59.9218814736,"None","American English","VSH_Exp2","2016_Mar_24_1518",NA
"Recordings/zuzu.wav","yes","z","z","u","no","u","zuzu","Training","alveolar","TrainingItems",1,22,122,45,NA,NA,NA,NA,NA,NA,NA,NA,NA,NA,130,"M",20,59.9218814736,"None","American English","VSH_Exp2","2016_Mar_24_1518",NA
"Recordings/tutu.wav","no","t","t","u","yes","u","tutu","Training","alveolar","TrainingItems",1,23,123,43,NA,NA,NA,NA,NA,NA,NA,NA,NA,NA,130,"M",20,59.9218814736,"None","American English","VSH_Exp2","2016_Mar_24_1518",NA
"Recordings/vavu.wav","yes","v","v","a","no","u","vavu","Training","bilabial","TrainingItems",1,24,124,91,NA,NA,NA,NA,NA,NA,NA,NA,NA,NA,130,"M",20,59.9218814736,"None","American English","VSH_Exp2","2016_Mar_24_1518",NA
"Recordings/sasi.wav","no","s","s","a","no","i","sasi","Training","alveolar","TrainingItems",1,25,125,17,NA,NA,NA,NA,NA,NA,NA,NA,NA,NA,130,"M",20,59.9218814736,"None","American English","VSH_Exp2","2016_Mar_24_1518",NA
"Recordings/badu.wav","yes","b","d","a","yes","u","badu","Training","bilabial","TrainingItems",1,26,126,52,NA,NA,NA,NA,NA,NA,NA,NA,NA,NA,130,"M",20,59.9218814736,"None","American English","VSH_Exp2","2016_Mar_24_1518",NA
"Recordings/dubi.wav","yes","d","b","u","yes","i","dubi","Training","alveolar","TrainingItems",1,27,127,41,NA,NA,NA,NA,NA,NA,NA,NA,NA,NA,130,"M",20,59.9218814736,"None","American English","VSH_Exp2","2016_Mar_24_1518",NA
"Recordings/bida.wav","yes","b","d","i","yes","a","bida","Training","bilabial","TrainingItems",1,28,128,87,NA,NA,NA,NA,NA,NA,NA,NA,NA,NA,130,"M",20,59.9218814736,"None","American English","VSH_Exp2","2016_Mar_24_1518",NA
"Recordings/pipi.wav","no","p","p","i","yes","i","pipi","Training","bilabial","TrainingItems",1,29,129,28,NA,NA,NA,NA,NA,NA,NA,NA,NA,NA,130,"M",20,59.9218814736,"None","American English","VSH_Exp2","2016_Mar_24_1518",NA
"Recordings/bubu.wav","yes","b","b","u","yes","u","bubu","Training","bilabial","TrainingItems",1,30,130,6,NA,NA,NA,NA,NA,NA,NA,NA,NA,NA,130,"M",20,59.9218814736,"None","American English","VSH_Exp2","2016_Mar_24_1518",NA
"Recordings/fufi.wav","no","f","f","u","no","i","fufi","Training","bilabial","TrainingItems",1,31,131,50,NA,NA,NA,NA,NA,NA,NA,NA,NA,NA,130,"M",20,59.9218814736,"None","American English","VSH_Exp2","2016_Mar_24_1518",NA
"Recordings/dada.wav","yes","d","d","a","yes","a","dada","Training","alveolar","TrainingItems",1,32,132,73,NA,NA,NA,NA,NA,NA,NA,NA,NA,NA,130,"M",20,59.9218814736,"None","American English","VSH_Exp2","2016_Mar_24_1518",NA
"Recordings/vavi.wav","yes","v","v","a","no","i","vavi","Training","bilabial","TrainingItems",1,33,133,71,NA,NA,NA,NA,NA,NA,NA,NA,NA,NA,130,"M",20,59.9218814736,"None","American English","VSH_Exp2","2016_Mar_24_1518",NA
"Recordings/vuva.wav","yes","v","v","u","no","a","vuva","Training","bilabial","TrainingItems",1,34,134,4,NA,NA,NA,NA,NA,NA,NA,NA,NA,NA,130,"M",20,59.9218814736,"None","American English","VSH_Exp2","2016_Mar_24_1518",NA
"Recordings/fasi.wav","no","f","s","a","no","i","fasi","Training","bilabial","TrainingItems",1,35,135,64,NA,NA,NA,NA,NA,NA,NA,NA,NA,NA,130,"M",20,59.9218814736,"None","American English","VSH_Exp2","2016_Mar_24_1518",NA
"Recordings/dudi.wav","yes","d","d","u","yes","i","dudi","Training","alveolar","TrainingItems",1,36,136,37,NA,NA,NA,NA,NA,NA,NA,NA,NA,NA,130,"M",20,59.9218814736,"None","American English","VSH_Exp2","2016_Mar_24_1518",NA
"Recordings/dubu.wav","yes","d","b","u","yes","u","dubu","Training","alveolar","TrainingItems",1,37,137,76,NA,NA,NA,NA,NA,NA,NA,NA,NA,NA,130,"M",20,59.9218814736,"None","American English","VSH_Exp2","2016_Mar_24_1518",NA
"Recordings/vuvi.wav","yes","v","v","u","no","i","vuvi","Training","bilabial","TrainingItems",1,38,138,1,NA,NA,NA,NA,NA,NA,NA,NA,NA,NA,130,"M",20,59.9218814736,"None","American English","VSH_Exp2","2016_Mar_24_1518",NA
"Recordings/tuti.wav","no","t","t","u","yes","i","tuti","Training","alveolar","TrainingItems",1,39,139,3,NA,NA,NA,NA,NA,NA,NA,NA,NA,NA,130,"M",20,59.9218814736,"None","American English","VSH_Exp2","2016_Mar_24_1518",NA
"Recordings/fasu.wav","no","f","s","a","no","u","fasu","Training","bilabial","TrainingItems",1,40,140,12,NA,NA,NA,NA,NA,NA,NA,NA,NA,NA,130,"M",20,59.9218814736,"None","American English","VSH_Exp2","2016_Mar_24_1518",NA
"Recordings/sufi.wav","no","s","f","u","no","i","sufi","Training","alveolar","TrainingItems",1,41,141,39,NA,NA,NA,NA,NA,NA,NA,NA,NA,NA,130,"M",20,59.9218814736,"None","American English","VSH_Exp2","2016_Mar_24_1518",NA
"Recordings/bibi.wav","yes","b","b","i","yes","i","bibi","Training","bilabial","TrainingItems",1,42,142,29,NA,NA,NA,NA,NA,NA,NA,NA,NA,NA,130,"M",20,59.9218814736,"None","American English","VSH_Exp2","2016_Mar_24_1518",NA
"Recordings/pupa.wav","no","p","p","u","yes","a","pupa","Training","bilabial","TrainingItems",1,43,143,51,NA,NA,NA,NA,NA,NA,NA,NA,NA,NA,130,"M",20,59.9218814736,"None","American English","VSH_Exp2","2016_Mar_24_1518",NA
"Recordings/sasu.wav","no","s","s","a","no","u","sasu","Training","alveolar","TrainingItems",1,44,144,0,NA,NA,NA,NA,NA,NA,NA,NA,NA,NA,130,"M",20,59.9218814736,"None","American English","VSH_Exp2","2016_Mar_24_1518",NA
"Recordings/pata.wav","no","p","t","a","yes","a","pata","Training","bilabial","TrainingItems",1,45,145,38,NA,NA,NA,NA,NA,NA,NA,NA,NA,NA,130,"M",20,59.9218814736,"None","American English","VSH_Exp2","2016_Mar_24_1518",NA
"Recordings/fisi.wav","no","f","s","i","no","i","fisi","Training","bilabial","TrainingItems",1,46,146,2,NA,NA,NA,NA,NA,NA,NA,NA,NA,NA,130,"M",20,59.9218814736,"None","American English","VSH_Exp2","2016_Mar_24_1518",NA
"Recordings/biba.wav","yes","b","b","i","yes","a","biba","Training","bilabial","TrainingItems",1,47,147,96,NA,NA,NA,NA,NA,NA,NA,NA,NA,NA,130,"M",20,59.9218814736,"None","American English","VSH_Exp2","2016_Mar_24_1518",NA
"Recordings/susi.wav","no","s","s","u","no","i","susi","Training","alveolar","TrainingItems",1,48,148,33,NA,NA,NA,NA,NA,NA,NA,NA,NA,NA,130,"M",20,59.9218814736,"None","American English","VSH_Exp2","2016_Mar_24_1518",NA
"Recordings/ziza.wav","yes","z","z","i","no","a","ziza","Training","alveolar","TrainingItems",1,49,149,48,NA,NA,NA,NA,NA,NA,NA,NA,NA,NA,130,"M",20,59.9218814736,"None","American English","VSH_Exp2","2016_Mar_24_1518",NA
"Recordings/pupi.wav","no","p","p","u","yes","i","pupi","Training","bilabial","TrainingItems",1,50,150,25,NA,NA,NA,NA,NA,NA,NA,NA,NA,NA,130,"M",20,59.9218814736,"None","American English","VSH_Exp2","2016_Mar_24_1518",NA
"Recordings/bidu.wav","yes","b","d","i","yes","u","bidu","Training","bilabial","TrainingItems",1,51,151,78,NA,NA,NA,NA,NA,NA,NA,NA,NA,NA,130,"M",20,59.9218814736,"None","American English","VSH_Exp2","2016_Mar_24_1518",NA
"Recordings/fusi.wav","no","f","s","u","no","i","fusi","Training","bilabial","TrainingItems",1,52,152,40,NA,NA,NA,NA,NA,NA,NA,NA,NA,NA,130,"M",20,59.9218814736,"None","American English","VSH_Exp2","2016_Mar_24_1518",NA
"Recordings/fusa.wav","no","f","s","u","no","a","fusa","Training","bilabial","TrainingItems",1,53,153,83,NA,NA,NA,NA,NA,NA,NA,NA,NA,NA,130,"M",20,59.9218814736,"None","American English","VSH_Exp2","2016_Mar_24_1518",NA
"Recordings/tipa.wav","no","t","p","i","yes","a","tipa","Training","alveolar","TrainingItems",1,54,154,61,NA,NA,NA,NA,NA,NA,NA,NA,NA,NA,130,"M",20,59.9218814736,"None","American English","VSH_Exp2","2016_Mar_24_1518",NA
"Recordings/buba.wav","yes","b","b","u","yes","a","buba","Training","bilabial","TrainingItems",1,55,155,11,NA,NA,NA,NA,NA,NA,NA,NA,NA,NA,130,"M",20,59.9218814736,"None","American English","VSH_Exp2","2016_Mar_24_1518",NA
"Recordings/sufa.wav","no","s","f","u","no","a","sufa","Training","alveolar","TrainingItems",1,56,156,13,NA,NA,NA,NA,NA,NA,NA,NA,NA,NA,130,"M",20,59.9218814736,"None","American English","VSH_Exp2","2016_Mar_24_1518",NA
"Recordings/fifu.wav","no","f","f","i","no","u","fifu","Training","bilabial","TrainingItems",1,57,157,65,NA,NA,NA,NA,NA,NA,NA,NA,NA,NA,130,"M",20,59.9218814736,"None","American English","VSH_Exp2","2016_Mar_24_1518",NA
"Recordings/tatu.wav","no","t","t","a","yes","u","tatu","Training","alveolar","TrainingItems",1,58,158,21,NA,NA,NA,NA,NA,NA,NA,NA,NA,NA,130,"M",20,59.9218814736,"None","American English","VSH_Exp2","2016_Mar_24_1518",NA
"Recordings/dadu.wav","yes","d","d","a","yes","u","dadu","Training","alveolar","TrainingItems",1,59,159,94,NA,NA,NA,NA,NA,NA,NA,NA,NA,NA,130,"M",20,59.9218814736,"None","American English","VSH_Exp2","2016_Mar_24_1518",NA
"Recordings/duba.wav","yes","d","b","u","yes","a","duba","Training","alveolar","TrainingItems",1,60,160,59,NA,NA,NA,NA,NA,NA,NA,NA,NA,NA,130,"M",20,59.9218814736,"None","American English","VSH_Exp2","2016_Mar_24_1518",NA
"Recordings/babu.wav","yes","b","b","a","yes","u","babu","Training","bilabial","TrainingItems",1,61,161,34,NA,NA,NA,NA,NA,NA,NA,NA,NA,NA,130,"M",20,59.9218814736,"None","American English","VSH_Exp2","2016_Mar_24_1518",NA
"Recordings/tipu.wav","no","t","p","i","yes","u","tipu","Training","alveolar","TrainingItems",1,62,162,44,NA,NA,NA,NA,NA,NA,NA,NA,NA,NA,130,"M",20,59.9218814736,"None","American English","VSH_Exp2","2016_Mar_24_1518",NA
"Recordings/tata.wav","no","t","t","a","yes","a","tata","Training","alveolar","TrainingItems",1,63,163,82,NA,NA,NA,NA,NA,NA,NA,NA,NA,NA,130,"M",20,59.9218814736,"None","American English","VSH_Exp2","2016_Mar_24_1518",NA
"Recordings/baba.wav","yes","b","b","a","yes","a","baba","Training","bilabial","TrainingItems",1,64,164,22,NA,NA,NA,NA,NA,NA,NA,NA,NA,NA,130,"M",20,59.9218814736,"None","American English","VSH_Exp2","2016_Mar_24_1518",NA
"Recordings/zazi.wav","yes","z","z","a","no","i","zazi","Training","alveolar","TrainingItems",1,65,165,18,NA,NA,NA,NA,NA,NA,NA,NA,NA,NA,130,"M",20,59.9218814736,"None","American English","VSH_Exp2","2016_Mar_24_1518",NA
"Recordings/bada.wav","yes","b","d","a","yes","a","bada","Training","bilabial","TrainingItems",1,66,166,75,NA,NA,NA,NA,NA,NA,NA,NA,NA,NA,130,"M",20,59.9218814736,"None","American English","VSH_Exp2","2016_Mar_24_1518",NA
"Recordings/pita.wav","no","p","t","i","yes","a","pita","Training","bilabial","TrainingItems",1,67,167,69,NA,NA,NA,NA,NA,NA,NA,NA,NA,NA,130,"M",20,59.9218814736,"None","American English","VSH_Exp2","2016_Mar_24_1518",NA
"Recordings/sifu.wav","no","s","f","i","no","u","sifu","Training","alveolar","TrainingItems",1,68,168,20,NA,NA,NA,NA,NA,NA,NA,NA,NA,NA,130,"M",20,59.9218814736,"None","American English","VSH_Exp2","2016_Mar_24_1518",NA
"Recordings/papa.wav","no","p","p","a","yes","a","papa","Training","bilabial","TrainingItems",1,69,169,86,NA,NA,NA,NA,NA,NA,NA,NA,NA,NA,130,"M",20,59.9218814736,"None","American English","VSH_Exp2","2016_Mar_24_1518",NA
"Recordings/susa.wav","no","s","s","u","no","a","susa","Training","alveolar","TrainingItems",1,70,170,62,NA,NA,NA,NA,NA,NA,NA,NA,NA,NA,130,"M",20,59.9218814736,"None","American English","VSH_Exp2","2016_Mar_24_1518",NA
"Recordings/vuvu.wav","yes","v","v","u","no","u","vuvu","Training","bilabial","TrainingItems",1,71,171,9,NA,NA,NA,NA,NA,NA,NA,NA,NA,NA,130,"M",20,59.9218814736,"None","American English","VSH_Exp2","2016_Mar_24_1518",NA
"Recordings/buda.wav","yes","b","d","u","yes","a","buda","Training","bilabial","TrainingItems",1,72,172,35,NA,NA,NA,NA,NA,NA,NA,NA,NA,NA,130,"M",20,59.9218814736,"None","American English","VSH_Exp2","2016_Mar_24_1518",NA
"Recordings/sufu.wav","no","s","f","u","no","u","sufu","Training","alveolar","TrainingItems",1,73,173,49,NA,NA,NA,NA,NA,NA,NA,NA,NA,NA,130,"M",20,59.9218814736,"None","American English","VSH_Exp2","2016_Mar_24_1518",NA
"Recordings/tita.wav","no","t","t","i","yes","a","tita","Training","alveolar","TrainingItems",1,74,174,72,NA,NA,NA,NA,NA,NA,NA,NA,NA,NA,130,"M",20,59.9218814736,"None","American English","VSH_Exp2","2016_Mar_24_1518",NA
"Recordings/babi.wav","yes","b","b","a","yes","i","babi","Training","bilabial","TrainingItems",1,75,175,68,NA,NA,NA,NA,NA,NA,NA,NA,NA,NA,130,"M",20,59.9218814736,"None","American English","VSH_Exp2","2016_Mar_24_1518",NA
"Recordings/vava.wav","yes","v","v","a","no","a","vava","Training","bilabial","TrainingItems",1,76,176,85,NA,NA,NA,NA,NA,NA,NA,NA,NA,NA,130,"M",20,59.9218814736,"None","American English","VSH_Exp2","2016_Mar_24_1518",NA
"Recordings/zizu.wav","yes","z","z","i","no","u","zizu","Training","alveolar","TrainingItems",1,77,177,97,NA,NA,NA,NA,NA,NA,NA,NA,NA,NA,130,"M",20,59.9218814736,"None","American English","VSH_Exp2","2016_Mar_24_1518",NA
"Recordings/bidi.wav","yes","b","d","i","yes","i","bidi","Training","bilabial","TrainingItems",1,78,178,26,NA,NA,NA,NA,NA,NA,NA,NA,NA,NA,130,"M",20,59.9218814736,"None","American English","VSH_Exp2","2016_Mar_24_1518",NA
"Recordings/patu.wav","no","p","t","a","yes","u","patu","Training","bilabial","TrainingItems",1,79,179,57,NA,NA,NA,NA,NA,NA,NA,NA,NA,NA,130,"M",20,59.9218814736,"None","American English","VSH_Exp2","2016_Mar_24_1518",NA
"Recordings/zaza.wav","yes","z","z","a","no","a","zaza","Training","alveolar","TrainingItems",1,80,180,32,NA,NA,NA,NA,NA,NA,NA,NA,NA,NA,130,"M",20,59.9218814736,"None","American English","VSH_Exp2","2016_Mar_24_1518",NA
"Recordings/dibu.wav","yes","d","b","i","yes","u","dibu","Training","alveolar","TrainingItems",1,81,181,89,NA,NA,NA,NA,NA,NA,NA,NA,NA,NA,130,"M",20,59.9218814736,"None","American English","VSH_Exp2","2016_Mar_24_1518",NA
"Recordings/safa.wav","no","s","f","a","no","a","safa","Training","alveolar","TrainingItems",1,82,182,67,NA,NA,NA,NA,NA,NA,NA,NA,NA,NA,130,"M",20,59.9218814736,"None","American English","VSH_Exp2","2016_Mar_24_1518",NA
"Recordings/fusu.wav","no","f","s","u","no","u","fusu","Training","bilabial","TrainingItems",1,83,183,99,NA,NA,NA,NA,NA,NA,NA,NA,NA,NA,130,"M",20,59.9218814736,"None","American English","VSH_Exp2","2016_Mar_24_1518",NA
"Recordings/viva.wav","yes","v","v","i","no","a","viva","Training","bilabial","TrainingItems",1,84,184,80,NA,NA,NA,NA,NA,NA,NA,NA,NA,NA,130,"M",20,59.9218814736,"None","American English","VSH_Exp2","2016_Mar_24_1518",NA
"Recordings/vivi.wav","yes","v","v","i","no","i","vivi","Training","bilabial","TrainingItems",1,85,185,81,NA,NA,NA,NA,NA,NA,NA,NA,NA,NA,130,"M",20,59.9218814736,"None","American English","VSH_Exp2","2016_Mar_24_1518",NA
"Recordings/dida.wav","yes","d","d","i","yes","a","dida","Training","alveolar","TrainingItems",1,86,186,47,NA,NA,NA,NA,NA,NA,NA,NA,NA,NA,130,"M",20,59.9218814736,"None","American English","VSH_Exp2","2016_Mar_24_1518",NA
"Recordings/tapa.wav","no","t","p","a","yes","a","tapa","Training","alveolar","TrainingItems",1,87,187,74,NA,NA,NA,NA,NA,NA,NA,NA,NA,NA,130,"M",20,59.9218814736,"None","American English","VSH_Exp2","2016_Mar_24_1518",NA
"Recordings/bubi.wav","yes","b","b","u","yes","i","bubi","Training","bilabial","TrainingItems",1,88,188,79,NA,NA,NA,NA,NA,NA,NA,NA,NA,NA,130,"M",20,59.9218814736,"None","American English","VSH_Exp2","2016_Mar_24_1518",NA
"Recordings/dabu.wav","yes","d","b","a","yes","u","dabu","Training","alveolar","TrainingItems",1,89,189,36,NA,NA,NA,NA,NA,NA,NA,NA,NA,NA,130,"M",20,59.9218814736,"None","American English","VSH_Exp2","2016_Mar_24_1518",NA
"Recordings/zuza.wav","yes","z","z","u","no","a","zuza","Training","alveolar","TrainingItems",1,90,190,14,NA,NA,NA,NA,NA,NA,NA,NA,NA,NA,130,"M",20,59.9218814736,"None","American English","VSH_Exp2","2016_Mar_24_1518",NA
"Recordings/tupu.wav","no","t","p","u","yes","u","tupu","Training","alveolar","TrainingItems",1,91,191,30,NA,NA,NA,NA,NA,NA,NA,NA,NA,NA,130,"M",20,59.9218814736,"None","American English","VSH_Exp2","2016_Mar_24_1518",NA
"Recordings/fafi.wav","no","f","f","a","no","i","fafi","Training","bilabial","TrainingItems",1,92,192,55,NA,NA,NA,NA,NA,NA,NA,NA,NA,NA,130,"M",20,59.9218814736,"None","American English","VSH_Exp2","2016_Mar_24_1518",NA
"Recordings/tuta.wav","no","t","t","u","yes","a","tuta","Training","alveolar","TrainingItems",1,93,193,95,NA,NA,NA,NA,NA,NA,NA,NA,NA,NA,130,"M",20,59.9218814736,"None","American English","VSH_Exp2","2016_Mar_24_1518",NA
"Recordings/diba.wav","yes","d","b","i","yes","a","diba","Training","alveolar","TrainingItems",1,94,194,92,NA,NA,NA,NA,NA,NA,NA,NA,NA,NA,130,"M",20,59.9218814736,"None","American English","VSH_Exp2","2016_Mar_24_1518",NA
"Recordings/dabi.wav","yes","d","b","a","yes","i","dabi","Training","alveolar","TrainingItems",1,95,195,70,NA,NA,NA,NA,NA,NA,NA,NA,NA,NA,130,"M",20,59.9218814736,"None","American English","VSH_Exp2","2016_Mar_24_1518",NA
"Recordings/budi.wav","yes","b","d","u","yes","i","budi","Training","bilabial","TrainingItems",1,96,196,15,NA,NA,NA,NA,NA,NA,NA,NA,NA,NA,130,"M",20,59.9218814736,"None","American English","VSH_Exp2","2016_Mar_24_1518",NA
"Recordings/dudu.wav","yes","d","d","u","yes","u","dudu","Training","alveolar","TrainingItems",1,97,197,88,NA,NA,NA,NA,NA,NA,NA,NA,NA,NA,130,"M",20,59.9218814736,"None","American English","VSH_Exp2","2016_Mar_24_1518",NA
"Recordings/daba.wav","yes","d","b","a","yes","a","daba","Training","alveolar","TrainingItems",1,98,198,84,NA,NA,NA,NA,NA,NA,NA,NA,NA,NA,130,"M",20,59.9218814736,"None","American English","VSH_Exp2","2016_Mar_24_1518",NA
"Recordings/pati.wav","no","p","t","a","yes","i","pati","Training","bilabial","TrainingItems",1,99,199,98,NA,NA,NA,NA,NA,NA,NA,NA,NA,NA,130,"M",20,59.9218814736,"None","American English","VSH_Exp2","2016_Mar_24_1518",NA
NA,NA,NA,NA,NA,NA,NA,NA,NA,NA,NA,NA,NA,NA,NA,NA,NA,NA,NA,NA,NA,"space",4.17325997353,NA,NA,130,"M",20,59.9218814736,"None","American English","VSH_Exp2","2016_Mar_24_1518",NA
"Recordings/butu.wav","yes","b","t","u","yes","u","butu","Controls","bilabial","StopControls",NA,NA,NA,NA,0,0,0,36,NA,NA,NA,NA,"Yes",2.522,130,"M",20,59.9218814736,"None","American English","VSH_Exp2","2016_Mar_24_1518",NA
"Recordings/tivi.wav","no","t","v","i","yes","i","tivi","Controls","alveolar","NoPatternControls",NA,NA,NA,NA,0,1,1,50,NA,NA,NA,NA,"Yes",4.641,130,"M",20,59.9218814736,"None","American English","VSH_Exp2","2016_Mar_24_1518",NA
"Recordings/zasu.wav","yes","z","s","a","no","u","zasu","Controls","alveolar","StopControls",NA,NA,NA,NA,0,2,2,34,NA,NA,NA,NA,"Yes",1.621,130,"M",20,59.9218814736,"None","American English","VSH_Exp2","2016_Mar_24_1518",NA
"Recordings/zibu.wav","yes","z","b","i","no","u","zibu","Controls","alveolar","VoicingControls",NA,NA,NA,NA,0,3,3,49,NA,NA,NA,NA,"Yes",1.588,130,"M",20,59.9218814736,"None","American English","VSH_Exp2","2016_Mar_24_1518",NA
"Recordings/vadu.wav","yes","v","d","a","no","u","vadu","Controls","bilabial","VoicingControls",NA,NA,NA,NA,0,4,4,48,NA,NA,NA,NA,"Yes",2.122,130,"M",20,59.9218814736,"None","American English","VSH_Exp2","2016_Mar_24_1518",NA
"Recordings/zifa.wav","yes","z","f","i","no","a","zifa","Controls","alveolar","StopControls",NA,NA,NA,NA,0,5,5,31,NA,NA,NA,NA,"No",1.971,130,"M",20,59.9218814736,"None","American English","VSH_Exp2","2016_Mar_24_1518",NA
"Recordings/zavu.wav","yes","z","v","a","no","u","zavu","Test","alveolar","NewConsTestStimuli",NA,NA,NA,NA,0,6,6,10,NA,NA,NA,NA,"Yes",5.676,130,"M",20,59.9218814736,"None","American English","VSH_Exp2","2016_Mar_24_1518",NA
"Recordings/dibu.wav","yes","d","b","i","yes","u","dibu","Test","alveolar","OldTestStimuli",NA,NA,NA,NA,0,7,7,4,NA,NA,NA,NA,"Yes",0.987,130,"M",20,59.9218814736,"None","American English","VSH_Exp2","2016_Mar_24_1518",NA
"Recordings/dusi.wav","yes","d","s","u","yes","i","dusi","Controls","alveolar","NoPatternControls",NA,NA,NA,NA,0,8,8,55,NA,NA,NA,NA,"Yes",2.539,130,"M",20,59.9218814736,"None","American English","VSH_Exp2","2016_Mar_24_1518",NA
"Recordings/zuta.wav","yes","z","t","u","no","a","zuta","Controls","alveolar","NoPatternControls",NA,NA,NA,NA,0,9,9,59,NA,NA,NA,NA,"No",1.919,130,"M",20,59.9218814736,"None","American English","VSH_Exp2","2016_Mar_24_1518",NA
"Recordings/diti.wav","yes","d","t","i","yes","i","diti","Controls","alveolar","StopControls",NA,NA,NA,NA,0,10,10,35,NA,NA,NA,NA,"No",1.087,130,"M",20,59.9218814736,"None","American English","VSH_Exp2","2016_Mar_24_1518",NA
"Recordings/zazu.wav","yes","z","z","a","no","u","zazu","Test","alveolar","NewWordTestStimuli",NA,NA,NA,NA,0,11,11,21,NA,NA,NA,NA,"Yes",1.503,130,"M",20,59.9218814736,"None","American English","VSH_Exp2","2016_Mar_24_1518",NA
"Recordings/ziza.wav","yes","z","z","i","no","a","ziza","Test","alveolar","OldTestStimuli",NA,NA,NA,NA,0,12,12,7,NA,NA,NA,NA,"Yes",1.253,130,"M",20,59.9218814736,"None","American English","VSH_Exp2","2016_Mar_24_1518",NA
"Recordings/dizi.wav","yes","d","z","i","yes","i","dizi","Controls","alveolar","VoicingControls",NA,NA,NA,NA,0,13,13,45,NA,NA,NA,NA,"Yes",1.854,130,"M",20,59.9218814736,"None","American English","VSH_Exp2","2016_Mar_24_1518",NA
"Recordings/fusa.wav","no","f","s","u","no","a","fusa","Test","bilabial","OldTestStimuli",NA,NA,NA,NA,0,14,14,8,NA,NA,NA,NA,"Yes",0.869,130,"M",20,59.9218814736,"None","American English","VSH_Exp2","2016_Mar_24_1518",NA
"Recordings/visa.wav","yes","v","s","i","no","a","visa","Controls","bilabial","StopControls",NA,NA,NA,NA,0,15,15,33,NA,NA,NA,NA,"Yes",3.405,130,"M",20,59.9218814736,"None","American English","VSH_Exp2","2016_Mar_24_1518",NA
"Recordings/pasu.wav","no","p","s","a","yes","u","pasu","Controls","bilabial","VoicingControls",NA,NA,NA,NA,0,16,16,47,NA,NA,NA,NA,"Yes",1.336,130,"M",20,59.9218814736,"None","American English","VSH_Exp2","2016_Mar_24_1518",NA
"Recordings/zadu.wav","yes","z","d","a","no","u","zadu","Controls","alveolar","VoicingControls",NA,NA,NA,NA,0,17,17,44,NA,NA,NA,NA,"Yes",1.152,130,"M",20,59.9218814736,"None","American English","VSH_Exp2","2016_Mar_24_1518",NA
"Recordings/bufa.wav","yes","b","f","u","yes","a","bufa","Controls","bilabial","NoPatternControls",NA,NA,NA,NA,0,18,18,56,NA,NA,NA,NA,"Yes",1.552,130,"M",20,59.9218814736,"None","American English","VSH_Exp2","2016_Mar_24_1518",NA
"Recordings/vida.wav","yes","v","d","i","no","a","vida","Controls","bilabial","VoicingControls",NA,NA,NA,NA,0,19,19,43,NA,NA,NA,NA,"Yes",1.905,130,"M",20,59.9218814736,"None","American English","VSH_Exp2","2016_Mar_24_1518",NA
"Recordings/buzu.wav","yes","b","z","u","yes","u","buzu","Controls","bilabial","VoicingControls",NA,NA,NA,NA,0,20,20,46,NA,NA,NA,NA,"Yes",1.135,130,"M",20,59.9218814736,"None","American English","VSH_Exp2","2016_Mar_24_1518",NA
"Recordings/fasi.wav","no","f","s","a","no","i","fasi","Test","bilabial","OldTestStimuli",NA,NA,NA,NA,0,21,21,0,NA,NA,NA,NA,"Yes",0.821,130,"M",20,59.9218814736,"None","American English","VSH_Exp2","2016_Mar_24_1518",NA
"Recordings/vaza.wav","yes","v","z","a","no","a","vaza","Test","bilabial","NewConsTestStimuli",NA,NA,NA,NA,0,22,22,15,NA,NA,NA,NA,"Yes",2.237,130,"M",20,59.9218814736,"None","American English","VSH_Exp2","2016_Mar_24_1518",NA
"Recordings/tasu.wav","no","t","s","a","yes","u","tasu","Controls","alveolar","VoicingControls",NA,NA,NA,NA,0,23,23,40,NA,NA,NA,NA,"No",8.862,130,"M",20,59.9218814736,"None","American English","VSH_Exp2","2016_Mar_24_1518",NA
"Recordings/bibi.wav","yes","b","b","i","yes","i","bibi","Test","bilabial","OldTestStimuli",NA,NA,NA,NA,0,24,24,2,NA,NA,NA,NA,"Yes",1.087,130,"M",20,59.9218814736,"None","American English","VSH_Exp2","2016_Mar_24_1518",NA
"Recordings/vasu.wav","yes","v","s","a","no","u","vasu","Controls","bilabial","StopControls",NA,NA,NA,NA,0,25,25,38,NA,NA,NA,NA,"Yes",0.685,130,"M",20,59.9218814736,"None","American English","VSH_Exp2","2016_Mar_24_1518",NA
"Recordings/zava.wav","yes","z","v","a","no","a","zava","Test","alveolar","NewConsTestStimuli",NA,NA,NA,NA,0,26,26,18,NA,NA,NA,NA,"Yes",1.788,130,"M",20,59.9218814736,"None","American English","VSH_Exp2","2016_Mar_24_1518",NA
"Recordings/sisa.wav","no","s","s","i","no","a","sisa","Test","alveolar","OldTestStimuli",NA,NA,NA,NA,0,27,27,9,NA,NA,NA,NA,"Yes",0.871,130,"M",20,59.9218814736,"None","American English","VSH_Exp2","2016_Mar_24_1518",NA
"Recordings/tidu.wav","no","t","d","i","yes","u","tidu","Controls","alveolar","StopControls",NA,NA,NA,NA,0,28,28,30,NA,NA,NA,NA,"Yes",2.655,130,"M",20,59.9218814736,"None","American English","VSH_Exp2","2016_Mar_24_1518",NA
"Recordings/puza.wav","no","p","z","u","yes","a","puza","Controls","bilabial","NoPatternControls",NA,NA,NA,NA,0,29,29,57,NA,NA,NA,NA,"No",1.504,130,"M",20,59.9218814736,"None","American English","VSH_Exp2","2016_Mar_24_1518",NA
"Recordings/fati.wav","no","f","t","a","no","i","fati","Controls","bilabial","VoicingControls",NA,NA,NA,NA,0,30,30,42,NA,NA,NA,NA,"No",5.708,130,"M",20,59.9218814736,"None","American English","VSH_Exp2","2016_Mar_24_1518",NA
"Recordings/fufa.wav","no","f","f","u","no","a","fufa","Test","bilabial","NewWordTestStimuli",NA,NA,NA,NA,0,31,31,22,NA,NA,NA,NA,"Yes",4.09,130,"M",20,59.9218814736,"None","American English","VSH_Exp2","2016_Mar_24_1518",NA
"Recordings/vavu.wav","yes","v","v","a","no","u","vavu","Test","bilabial","OldTestStimuli",NA,NA,NA,NA,0,32,32,1,NA,NA,NA,NA,"Yes",2.186,130,"M",20,59.9218814736,"None","American English","VSH_Exp2","2016_Mar_24_1518",NA
"Recordings/safu.wav","no","s","f","a","no","u","safu","Test","alveolar","NewWordTestStimuli",NA,NA,NA,NA,0,33,33,29,NA,NA,NA,NA,"Yes",0.902,130,"M",20,59.9218814736,"None","American English","VSH_Exp2","2016_Mar_24_1518",NA
"Recordings/sisu.wav","no","s","s","i","no","u","sisu","Test","alveolar","NewWordTestStimuli",NA,NA,NA,NA,0,34,34,23,NA,NA,NA,NA,"Yes",1.137,130,"M",20,59.9218814736,"None","American English","VSH_Exp2","2016_Mar_24_1518",NA
"Recordings/titu.wav","no","t","t","i","yes","u","titu","Test","alveolar","NewWordTestStimuli",NA,NA,NA,NA,0,35,35,24,NA,NA,NA,NA,"Yes",0.903,130,"M",20,59.9218814736,"None","American English","VSH_Exp2","2016_Mar_24_1518",NA
"Recordings/vupa.wav","yes","v","p","u","no","a","vupa","Controls","bilabial","NoPatternControls",NA,NA,NA,NA,0,36,36,58,NA,NA,NA,NA,"No",4.592,130,"M",20,59.9218814736,"None","American English","VSH_Exp2","2016_Mar_24_1518",NA
"Recordings/ziba.wav","yes","z","b","i","no","a","ziba","Controls","alveolar","VoicingControls",NA,NA,NA,NA,0,37,37,41,NA,NA,NA,NA,"Yes",1.104,130,"M",20,59.9218814736,"None","American English","VSH_Exp2","2016_Mar_24_1518",NA
"Recordings/susu.wav","no","s","s","u","no","u","susu","Test","alveolar","NewWordTestStimuli",NA,NA,NA,NA,0,38,38,20,NA,NA,NA,NA,"Yes",0.903,130,"M",20,59.9218814736,"None","American English","VSH_Exp2","2016_Mar_24_1518",NA
"Recordings/buba.wav","yes","b","b","u","yes","a","buba","Test","bilabial","OldTestStimuli",NA,NA,NA,NA,0,39,39,6,NA,NA,NA,NA,"Yes",1.187,130,"M",20,59.9218814736,"None","American English","VSH_Exp2","2016_Mar_24_1518",NA
"Recordings/dadi.wav","yes","d","d","a","yes","i","dadi","Test","alveolar","NewWordTestStimuli",NA,NA,NA,NA,0,40,40,25,NA,NA,NA,NA,"Yes",0.836,130,"M",20,59.9218814736,"None","American English","VSH_Exp2","2016_Mar_24_1518",NA
"Recordings/zuza.wav","yes","z","z","u","no","a","zuza","Test","alveolar","OldTestStimuli",NA,NA,NA,NA,0,41,41,5,NA,NA,NA,NA,"Yes",0.92,130,"M",20,59.9218814736,"None","American English","VSH_Exp2","2016_Mar_24_1518",NA
"Recordings/zifu.wav","yes","z","f","i","no","u","zifu","Controls","alveolar","StopControls",NA,NA,NA,NA,0,42,42,39,NA,NA,NA,NA,"Yes",1.07,130,"M",20,59.9218814736,"None","American English","VSH_Exp2","2016_Mar_24_1518",NA
"Recordings/favu.wav","no","f","v","a","no","u","favu","Controls","bilabial","StopControls",NA,NA,NA,NA,0,43,43,32,NA,NA,NA,NA,"Yes",2.238,130,"M",20,59.9218814736,"None","American English","VSH_Exp2","2016_Mar_24_1518",NA
"Recordings/fiba.wav","no","f","b","i","no","a","fiba","Controls","bilabial","NoPatternControls",NA,NA,NA,NA,0,44,44,52,NA,NA,NA,NA,"No",2.004,130,"M",20,59.9218814736,"None","American English","VSH_Exp2","2016_Mar_24_1518",NA
"Recordings/zati.wav","yes","z","t","a","no","i","zati","Controls","alveolar","NoPatternControls",NA,NA,NA,NA,0,45,45,51,NA,NA,NA,NA,"No",1.155,130,"M",20,59.9218814736,"None","American English","VSH_Exp2","2016_Mar_24_1518",NA
"Recordings/zuva.wav","yes","z","v","u","no","a","zuva","Test","alveolar","NewConsTestStimuli",NA,NA,NA,NA,0,46,46,11,NA,NA,NA,NA,"Yes",3.272,130,"M",20,59.9218814736,"None","American English","VSH_Exp2","2016_Mar_24_1518",NA
"Recordings/vuza.wav","yes","v","z","u","no","a","vuza","Test","bilabial","NewConsTestStimuli",NA,NA,NA,NA,0,47,47,19,NA,NA,NA,NA,"No",2.271,130,"M",20,59.9218814736,"None","American English","VSH_Exp2","2016_Mar_24_1518",NA
"Recordings/dubu.wav","yes","d","b","u","yes","u","dubu","Test","alveolar","OldTestStimuli",NA,NA,NA,NA,0,48,48,3,NA,NA,NA,NA,"Yes",0.953,130,"M",20,59.9218814736,"None","American English","VSH_Exp2","2016_Mar_24_1518",NA
"Recordings/fasa.wav","no","f","s","a","no","a","fasa","Test","bilabial","NewWordTestStimuli",NA,NA,NA,NA,0,49,49,27,NA,NA,NA,NA,"Yes",0.67,130,"M",20,59.9218814736,"None","American English","VSH_Exp2","2016_Mar_24_1518",NA
"Recordings/vizi.wav","yes","v","z","i","no","i","vizi","Test","bilabial","NewConsTestStimuli",NA,NA,NA,NA,0,50,50,17,NA,NA,NA,NA,"Yes",1.22,130,"M",20,59.9218814736,"None","American English","VSH_Exp2","2016_Mar_24_1518",NA
"Recordings/padu.wav","no","p","d","a","yes","u","padu","Controls","bilabial","StopControls",NA,NA,NA,NA,0,51,51,37,NA,NA,NA,NA,"Yes",1.07,130,"M",20,59.9218814736,"None","American English","VSH_Exp2","2016_Mar_24_1518",NA
"Recordings/vipa.wav","yes","v","p","i","no","a","vipa","Controls","bilabial","NoPatternControls",NA,NA,NA,NA,0,52,52,53,NA,NA,NA,NA,"No",1.472,130,"M",20,59.9218814736,"None","American English","VSH_Exp2","2016_Mar_24_1518",NA
"Recordings/vazi.wav","yes","v","z","a","no","i","vazi","Test","bilabial","NewConsTestStimuli",NA,NA,NA,NA,0,53,53,16,NA,NA,NA,NA,"No",2.438,130,"M",20,59.9218814736,"None","American English","VSH_Exp2","2016_Mar_24_1518",NA
"Recordings/zita.wav","yes","z","t","i","no","a","zita","Controls","alveolar","NoPatternControls",NA,NA,NA,NA,0,54,54,54,NA,NA,NA,NA,"No",2.471,130,"M",20,59.9218814736,"None","American English","VSH_Exp2","2016_Mar_24_1518",NA
"Recordings/budu.wav","yes","b","d","u","yes","u","budu","Test","bilabial","NewWordTestStimuli",NA,NA,NA,NA,0,55,55,26,NA,NA,NA,NA,"Yes",0.752,130,"M",20,59.9218814736,"None","American English","VSH_Exp2","2016_Mar_24_1518",NA
"Recordings/viza.wav","yes","v","z","i","no","a","viza","Test","bilabial","NewConsTestStimuli",NA,NA,NA,NA,0,56,56,12,NA,NA,NA,NA,"Yes",0.82,130,"M",20,59.9218814736,"None","American English","VSH_Exp2","2016_Mar_24_1518",NA
"Recordings/zivi.wav","yes","z","v","i","no","i","zivi","Test","alveolar","NewConsTestStimuli",NA,NA,NA,NA,0,57,57,14,NA,NA,NA,NA,"Yes",1.054,130,"M",20,59.9218814736,"None","American English","VSH_Exp2","2016_Mar_24_1518",NA
"Recordings/zuvu.wav","yes","z","v","u","no","u","zuvu","Test","alveolar","NewConsTestStimuli",NA,NA,NA,NA,0,58,58,13,NA,NA,NA,NA,"Yes",1.003,130,"M",20,59.9218814736,"None","American English","VSH_Exp2","2016_Mar_24_1518",NA
"Recordings/zuzi.wav","yes","z","z","u","no","i","zuzi","Test","alveolar","NewWordTestStimuli",NA,NA,NA,NA,0,59,59,28,NA,NA,NA,NA,"Yes",0.72,130,"M",20,59.9218814736,"None","American English","VSH_Exp2","2016_Mar_24_1518",NA
