"SOUND","VOICING","SEGMENT","SEGMENT3","SEGMENT2","STOP","SEGMENT4","STIMULUS","GENERAL_TYPE","PLACE","TYPE","trials.thisRepN","trials.thisTrialN","trials.thisN","trials.thisIndex","trials_2.thisRepN","trials_2.thisTrialN","trials_2.thisN","trials_2.thisIndex","SpaceBar.keys","SpaceBar.rt","key_resp_2.keys","key_resp_2.rt","rating.response","rating.rt","participant","Gender","Age","frameRate","OtherLanguages","NativeLanguage","expName","date","X34"
NA,NA,NA,NA,NA,NA,NA,NA,NA,NA,NA,NA,NA,NA,NA,NA,NA,NA,NA,"space",1.31936097145,NA,NA,NA,NA,132,FALSE,21,59.9384082461,NA,"American English","VSH_Exp2","2016_Mar_24_1518",NA
"Recordings/zuvu.wav","yes","z","v","u","no","u","zuvu","Training","alveolar","TrainingItems",0,0,0,24,NA,NA,NA,NA,NA,NA,NA,NA,NA,NA,132,FALSE,21,59.9384082461,NA,"American English","VSH_Exp2","2016_Mar_24_1518",NA
"Recordings/tapa.wav","no","t","p","a","yes","a","tapa","Training","alveolar","TrainingItems",0,1,1,27,NA,NA,NA,NA,NA,NA,NA,NA,NA,NA,132,FALSE,21,59.9384082461,NA,"American English","VSH_Exp2","2016_Mar_24_1518",NA
"Recordings/titi.wav","no","t","t","i","yes","i","titi","Training","alveolar","TrainingItems",0,2,2,70,NA,NA,NA,NA,NA,NA,NA,NA,NA,NA,132,FALSE,21,59.9384082461,NA,"American English","VSH_Exp2","2016_Mar_24_1518",NA
"Recordings/pata.wav","no","p","t","a","yes","a","pata","Training","bilabial","TrainingItems",0,3,3,55,NA,NA,NA,NA,NA,NA,NA,NA,NA,NA,132,FALSE,21,59.9384082461,NA,"American English","VSH_Exp2","2016_Mar_24_1518",NA
"Recordings/buba.wav","yes","b","b","u","yes","a","buba","Training","bilabial","TrainingItems",0,4,4,37,NA,NA,NA,NA,NA,NA,NA,NA,NA,NA,132,FALSE,21,59.9384082461,NA,"American English","VSH_Exp2","2016_Mar_24_1518",NA
"Recordings/tita.wav","no","t","t","i","yes","a","tita","Training","alveolar","TrainingItems",0,5,5,17,NA,NA,NA,NA,NA,NA,NA,NA,NA,NA,132,FALSE,21,59.9384082461,NA,"American English","VSH_Exp2","2016_Mar_24_1518",NA
"Recordings/bibu.wav","yes","b","b","i","yes","u","bibu","Training","bilabial","TrainingItems",0,6,6,18,NA,NA,NA,NA,NA,NA,NA,NA,NA,NA,132,FALSE,21,59.9384082461,NA,"American English","VSH_Exp2","2016_Mar_24_1518",NA
"Recordings/vizu.wav","yes","v","z","i","no","u","vizu","Training","bilabial","TrainingItems",0,7,7,82,NA,NA,NA,NA,NA,NA,NA,NA,NA,NA,132,FALSE,21,59.9384082461,NA,"American English","VSH_Exp2","2016_Mar_24_1518",NA
"Recordings/dudu.wav","yes","d","d","u","yes","u","dudu","Training","alveolar","TrainingItems",0,8,8,48,NA,NA,NA,NA,NA,NA,NA,NA,NA,NA,132,FALSE,21,59.9384082461,NA,"American English","VSH_Exp2","2016_Mar_24_1518",NA
"Recordings/dabu.wav","yes","d","b","a","yes","u","dabu","Training","alveolar","TrainingItems",0,9,9,4,NA,NA,NA,NA,NA,NA,NA,NA,NA,NA,132,FALSE,21,59.9384082461,NA,"American English","VSH_Exp2","2016_Mar_24_1518",NA
"Recordings/vaza.wav","yes","v","z","a","no","a","vaza","Training","bilabial","TrainingItems",0,10,10,39,NA,NA,NA,NA,NA,NA,NA,NA,NA,NA,132,FALSE,21,59.9384082461,NA,"American English","VSH_Exp2","2016_Mar_24_1518",NA
"Recordings/zuza.wav","yes","z","z","u","no","a","zuza","Training","alveolar","TrainingItems",0,11,11,84,NA,NA,NA,NA,NA,NA,NA,NA,NA,NA,132,FALSE,21,59.9384082461,NA,"American English","VSH_Exp2","2016_Mar_24_1518",NA
"Recordings/tata.wav","no","t","t","a","yes","a","tata","Training","alveolar","TrainingItems",0,12,12,54,NA,NA,NA,NA,NA,NA,NA,NA,NA,NA,132,FALSE,21,59.9384082461,NA,"American English","VSH_Exp2","2016_Mar_24_1518",NA
"Recordings/dabi.wav","yes","d","b","a","yes","i","dabi","Training","alveolar","TrainingItems",0,13,13,30,NA,NA,NA,NA,NA,NA,NA,NA,NA,NA,132,FALSE,21,59.9384082461,NA,"American English","VSH_Exp2","2016_Mar_24_1518",NA
"Recordings/duda.wav","yes","d","d","u","yes","a","duda","Training","alveolar","TrainingItems",0,14,14,94,NA,NA,NA,NA,NA,NA,NA,NA,NA,NA,132,FALSE,21,59.9384082461,NA,"American English","VSH_Exp2","2016_Mar_24_1518",NA
"Recordings/viva.wav","yes","v","v","i","no","a","viva","Training","bilabial","TrainingItems",0,15,15,40,NA,NA,NA,NA,NA,NA,NA,NA,NA,NA,132,FALSE,21,59.9384082461,NA,"American English","VSH_Exp2","2016_Mar_24_1518",NA
"Recordings/duba.wav","yes","d","b","u","yes","a","duba","Training","alveolar","TrainingItems",0,16,16,81,NA,NA,NA,NA,NA,NA,NA,NA,NA,NA,132,FALSE,21,59.9384082461,NA,"American English","VSH_Exp2","2016_Mar_24_1518",NA
"Recordings/tupa.wav","no","t","p","u","yes","a","tupa","Training","alveolar","TrainingItems",0,17,17,95,NA,NA,NA,NA,NA,NA,NA,NA,NA,NA,132,FALSE,21,59.9384082461,NA,"American English","VSH_Exp2","2016_Mar_24_1518",NA
"Recordings/tapi.wav","no","t","p","a","yes","i","tapi","Training","alveolar","TrainingItems",0,18,18,66,NA,NA,NA,NA,NA,NA,NA,NA,NA,NA,132,FALSE,21,59.9384082461,NA,"American English","VSH_Exp2","2016_Mar_24_1518",NA
"Recordings/zizu.wav","yes","z","z","i","no","u","zizu","Training","alveolar","TrainingItems",0,19,19,23,NA,NA,NA,NA,NA,NA,NA,NA,NA,NA,132,FALSE,21,59.9384082461,NA,"American English","VSH_Exp2","2016_Mar_24_1518",NA
"Recordings/dubu.wav","yes","d","b","u","yes","u","dubu","Training","alveolar","TrainingItems",0,20,20,80,NA,NA,NA,NA,NA,NA,NA,NA,NA,NA,132,FALSE,21,59.9384082461,NA,"American English","VSH_Exp2","2016_Mar_24_1518",NA
"Recordings/vuvu.wav","yes","v","v","u","no","u","vuvu","Training","bilabial","TrainingItems",0,21,21,86,NA,NA,NA,NA,NA,NA,NA,NA,NA,NA,132,FALSE,21,59.9384082461,NA,"American English","VSH_Exp2","2016_Mar_24_1518",NA
"Recordings/ziza.wav","yes","z","z","i","no","a","ziza","Training","alveolar","TrainingItems",0,22,22,67,NA,NA,NA,NA,NA,NA,NA,NA,NA,NA,132,FALSE,21,59.9384082461,NA,"American English","VSH_Exp2","2016_Mar_24_1518",NA
"Recordings/fufu.wav","no","f","f","u","no","u","fufu","Training","bilabial","TrainingItems",0,23,23,79,NA,NA,NA,NA,NA,NA,NA,NA,NA,NA,132,FALSE,21,59.9384082461,NA,"American English","VSH_Exp2","2016_Mar_24_1518",NA
"Recordings/pupi.wav","no","p","p","u","yes","i","pupi","Training","bilabial","TrainingItems",0,24,24,47,NA,NA,NA,NA,NA,NA,NA,NA,NA,NA,132,FALSE,21,59.9384082461,NA,"American English","VSH_Exp2","2016_Mar_24_1518",NA
"Recordings/pita.wav","no","p","t","i","yes","a","pita","Training","bilabial","TrainingItems",0,25,25,69,NA,NA,NA,NA,NA,NA,NA,NA,NA,NA,132,FALSE,21,59.9384082461,NA,"American English","VSH_Exp2","2016_Mar_24_1518",NA
"Recordings/pati.wav","no","p","t","a","yes","i","pati","Training","bilabial","TrainingItems",0,26,26,34,NA,NA,NA,NA,NA,NA,NA,NA,NA,NA,132,FALSE,21,59.9384082461,NA,"American English","VSH_Exp2","2016_Mar_24_1518",NA
"Recordings/vava.wav","yes","v","v","a","no","a","vava","Training","bilabial","TrainingItems",0,27,27,52,NA,NA,NA,NA,NA,NA,NA,NA,NA,NA,132,FALSE,21,59.9384082461,NA,"American English","VSH_Exp2","2016_Mar_24_1518",NA
"Recordings/zazi.wav","yes","z","z","a","no","i","zazi","Training","alveolar","TrainingItems",0,28,28,88,NA,NA,NA,NA,NA,NA,NA,NA,NA,NA,132,FALSE,21,59.9384082461,NA,"American English","VSH_Exp2","2016_Mar_24_1518",NA
"Recordings/vavi.wav","yes","v","v","a","no","i","vavi","Training","bilabial","TrainingItems",0,29,29,78,NA,NA,NA,NA,NA,NA,NA,NA,NA,NA,132,FALSE,21,59.9384082461,NA,"American English","VSH_Exp2","2016_Mar_24_1518",NA
"Recordings/bidi.wav","yes","b","d","i","yes","i","bidi","Training","bilabial","TrainingItems",0,30,30,87,NA,NA,NA,NA,NA,NA,NA,NA,NA,NA,132,FALSE,21,59.9384082461,NA,"American English","VSH_Exp2","2016_Mar_24_1518",NA
"Recordings/tipi.wav","no","t","p","i","yes","i","tipi","Training","alveolar","TrainingItems",0,31,31,99,NA,NA,NA,NA,NA,NA,NA,NA,NA,NA,132,FALSE,21,59.9384082461,NA,"American English","VSH_Exp2","2016_Mar_24_1518",NA
"Recordings/papu.wav","no","p","p","a","yes","u","papu","Training","bilabial","TrainingItems",0,32,32,68,NA,NA,NA,NA,NA,NA,NA,NA,NA,NA,132,FALSE,21,59.9384082461,NA,"American English","VSH_Exp2","2016_Mar_24_1518",NA
"Recordings/pupa.wav","no","p","p","u","yes","a","pupa","Training","bilabial","TrainingItems",0,33,33,96,NA,NA,NA,NA,NA,NA,NA,NA,NA,NA,132,FALSE,21,59.9384082461,NA,"American English","VSH_Exp2","2016_Mar_24_1518",NA
"Recordings/putu.wav","no","p","t","u","yes","u","putu","Training","bilabial","TrainingItems",0,34,34,11,NA,NA,NA,NA,NA,NA,NA,NA,NA,NA,132,FALSE,21,59.9384082461,NA,"American English","VSH_Exp2","2016_Mar_24_1518",NA
"Recordings/budu.wav","yes","b","d","u","yes","u","budu","Training","bilabial","TrainingItems",0,35,35,98,NA,NA,NA,NA,NA,NA,NA,NA,NA,NA,132,FALSE,21,59.9384082461,NA,"American English","VSH_Exp2","2016_Mar_24_1518",NA
"Recordings/buda.wav","yes","b","d","u","yes","a","buda","Training","bilabial","TrainingItems",0,36,36,83,NA,NA,NA,NA,NA,NA,NA,NA,NA,NA,132,FALSE,21,59.9384082461,NA,"American English","VSH_Exp2","2016_Mar_24_1518",NA
"Recordings/dadu.wav","yes","d","d","a","yes","u","dadu","Training","alveolar","TrainingItems",0,37,37,25,NA,NA,NA,NA,NA,NA,NA,NA,NA,NA,132,FALSE,21,59.9384082461,NA,"American English","VSH_Exp2","2016_Mar_24_1518",NA
"Recordings/zuvi.wav","yes","z","v","u","no","i","zuvi","Training","alveolar","TrainingItems",0,38,38,44,NA,NA,NA,NA,NA,NA,NA,NA,NA,NA,132,FALSE,21,59.9384082461,NA,"American English","VSH_Exp2","2016_Mar_24_1518",NA
"Recordings/zazu.wav","yes","z","z","a","no","u","zazu","Training","alveolar","TrainingItems",0,39,39,5,NA,NA,NA,NA,NA,NA,NA,NA,NA,NA,132,FALSE,21,59.9384082461,NA,"American English","VSH_Exp2","2016_Mar_24_1518",NA
"Recordings/dadi.wav","yes","d","d","a","yes","i","dadi","Training","alveolar","TrainingItems",0,40,40,50,NA,NA,NA,NA,NA,NA,NA,NA,NA,NA,132,FALSE,21,59.9384082461,NA,"American English","VSH_Exp2","2016_Mar_24_1518",NA
"Recordings/papa.wav","no","p","p","a","yes","a","papa","Training","bilabial","TrainingItems",0,41,41,59,NA,NA,NA,NA,NA,NA,NA,NA,NA,NA,132,FALSE,21,59.9384082461,NA,"American English","VSH_Exp2","2016_Mar_24_1518",NA
"Recordings/badu.wav","yes","b","d","a","yes","u","badu","Training","bilabial","TrainingItems",0,42,42,93,NA,NA,NA,NA,NA,NA,NA,NA,NA,NA,132,FALSE,21,59.9384082461,NA,"American English","VSH_Exp2","2016_Mar_24_1518",NA
"Recordings/ziva.wav","yes","z","v","i","no","a","ziva","Training","alveolar","TrainingItems",0,43,43,6,NA,NA,NA,NA,NA,NA,NA,NA,NA,NA,132,FALSE,21,59.9384082461,NA,"American English","VSH_Exp2","2016_Mar_24_1518",NA
"Recordings/tuti.wav","no","t","t","u","yes","i","tuti","Training","alveolar","TrainingItems",0,44,44,92,NA,NA,NA,NA,NA,NA,NA,NA,NA,NA,132,FALSE,21,59.9384082461,NA,"American English","VSH_Exp2","2016_Mar_24_1518",NA
"Recordings/vavu.wav","yes","v","v","a","no","u","vavu","Training","bilabial","TrainingItems",0,45,45,65,NA,NA,NA,NA,NA,NA,NA,NA,NA,NA,132,FALSE,21,59.9384082461,NA,"American English","VSH_Exp2","2016_Mar_24_1518",NA
"Recordings/fifi.wav","no","f","f","i","no","i","fifi","Training","bilabial","TrainingItems",0,46,46,46,NA,NA,NA,NA,NA,NA,NA,NA,NA,NA,132,FALSE,21,59.9384082461,NA,"American English","VSH_Exp2","2016_Mar_24_1518",NA
"Recordings/zavi.wav","yes","z","v","a","no","i","zavi","Training","alveolar","TrainingItems",0,47,47,36,NA,NA,NA,NA,NA,NA,NA,NA,NA,NA,132,FALSE,21,59.9384082461,NA,"American English","VSH_Exp2","2016_Mar_24_1518",NA
"Recordings/dudi.wav","yes","d","d","u","yes","i","dudi","Training","alveolar","TrainingItems",0,48,48,35,NA,NA,NA,NA,NA,NA,NA,NA,NA,NA,132,FALSE,21,59.9384082461,NA,"American English","VSH_Exp2","2016_Mar_24_1518",NA
"Recordings/bibi.wav","yes","b","b","i","yes","i","bibi","Training","bilabial","TrainingItems",0,49,49,89,NA,NA,NA,NA,NA,NA,NA,NA,NA,NA,132,FALSE,21,59.9384082461,NA,"American English","VSH_Exp2","2016_Mar_24_1518",NA
"Recordings/pipa.wav","no","p","p","i","yes","a","pipa","Training","bilabial","TrainingItems",0,50,50,42,NA,NA,NA,NA,NA,NA,NA,NA,NA,NA,132,FALSE,21,59.9384082461,NA,"American English","VSH_Exp2","2016_Mar_24_1518",NA
"Recordings/susu.wav","no","s","s","u","no","u","susu","Training","alveolar","TrainingItems",0,51,51,90,NA,NA,NA,NA,NA,NA,NA,NA,NA,NA,132,FALSE,21,59.9384082461,NA,"American English","VSH_Exp2","2016_Mar_24_1518",NA
"Recordings/vuza.wav","yes","v","z","u","no","a","vuza","Training","bilabial","TrainingItems",0,52,52,31,NA,NA,NA,NA,NA,NA,NA,NA,NA,NA,132,FALSE,21,59.9384082461,NA,"American English","VSH_Exp2","2016_Mar_24_1518",NA
"Recordings/sisa.wav","no","s","s","i","no","a","sisa","Training","alveolar","TrainingItems",0,53,53,8,NA,NA,NA,NA,NA,NA,NA,NA,NA,NA,132,FALSE,21,59.9384082461,NA,"American English","VSH_Exp2","2016_Mar_24_1518",NA
"Recordings/dida.wav","yes","d","d","i","yes","a","dida","Training","alveolar","TrainingItems",0,54,54,15,NA,NA,NA,NA,NA,NA,NA,NA,NA,NA,132,FALSE,21,59.9384082461,NA,"American English","VSH_Exp2","2016_Mar_24_1518",NA
"Recordings/vuvi.wav","yes","v","v","u","no","i","vuvi","Training","bilabial","TrainingItems",0,55,55,63,NA,NA,NA,NA,NA,NA,NA,NA,NA,NA,132,FALSE,21,59.9384082461,NA,"American English","VSH_Exp2","2016_Mar_24_1518",NA
"Recordings/bida.wav","yes","b","d","i","yes","a","bida","Training","bilabial","TrainingItems",0,56,56,29,NA,NA,NA,NA,NA,NA,NA,NA,NA,NA,132,FALSE,21,59.9384082461,NA,"American English","VSH_Exp2","2016_Mar_24_1518",NA
"Recordings/vizi.wav","yes","v","z","i","no","i","vizi","Training","bilabial","TrainingItems",0,57,57,12,NA,NA,NA,NA,NA,NA,NA,NA,NA,NA,132,FALSE,21,59.9384082461,NA,"American English","VSH_Exp2","2016_Mar_24_1518",NA
"Recordings/bidu.wav","yes","b","d","i","yes","u","bidu","Training","bilabial","TrainingItems",0,58,58,74,NA,NA,NA,NA,NA,NA,NA,NA,NA,NA,132,FALSE,21,59.9384082461,NA,"American English","VSH_Exp2","2016_Mar_24_1518",NA
"Recordings/tipu.wav","no","t","p","i","yes","u","tipu","Training","alveolar","TrainingItems",0,59,59,3,NA,NA,NA,NA,NA,NA,NA,NA,NA,NA,132,FALSE,21,59.9384082461,NA,"American English","VSH_Exp2","2016_Mar_24_1518",NA
"Recordings/zava.wav","yes","z","v","a","no","a","zava","Training","alveolar","TrainingItems",0,60,60,43,NA,NA,NA,NA,NA,NA,NA,NA,NA,NA,132,FALSE,21,59.9384082461,NA,"American English","VSH_Exp2","2016_Mar_24_1518",NA
"Recordings/babu.wav","yes","b","b","a","yes","u","babu","Training","bilabial","TrainingItems",0,61,61,53,NA,NA,NA,NA,NA,NA,NA,NA,NA,NA,132,FALSE,21,59.9384082461,NA,"American English","VSH_Exp2","2016_Mar_24_1518",NA
"Recordings/pipi.wav","no","p","p","i","yes","i","pipi","Training","bilabial","TrainingItems",0,62,62,76,NA,NA,NA,NA,NA,NA,NA,NA,NA,NA,132,FALSE,21,59.9384082461,NA,"American English","VSH_Exp2","2016_Mar_24_1518",NA
"Recordings/daba.wav","yes","d","b","a","yes","a","daba","Training","alveolar","TrainingItems",0,63,63,72,NA,NA,NA,NA,NA,NA,NA,NA,NA,NA,132,FALSE,21,59.9384082461,NA,"American English","VSH_Exp2","2016_Mar_24_1518",NA
"Recordings/diba.wav","yes","d","b","i","yes","a","diba","Training","alveolar","TrainingItems",0,64,64,22,NA,NA,NA,NA,NA,NA,NA,NA,NA,NA,132,FALSE,21,59.9384082461,NA,"American English","VSH_Exp2","2016_Mar_24_1518",NA
"Recordings/baba.wav","yes","b","b","a","yes","a","baba","Training","bilabial","TrainingItems",0,65,65,0,NA,NA,NA,NA,NA,NA,NA,NA,NA,NA,132,FALSE,21,59.9384082461,NA,"American English","VSH_Exp2","2016_Mar_24_1518",NA
"Recordings/susi.wav","no","s","s","u","no","i","susi","Training","alveolar","TrainingItems",0,66,66,28,NA,NA,NA,NA,NA,NA,NA,NA,NA,NA,132,FALSE,21,59.9384082461,NA,"American English","VSH_Exp2","2016_Mar_24_1518",NA
"Recordings/sasa.wav","no","s","s","a","no","a","sasa","Training","alveolar","TrainingItems",0,67,67,97,NA,NA,NA,NA,NA,NA,NA,NA,NA,NA,132,FALSE,21,59.9384082461,NA,"American English","VSH_Exp2","2016_Mar_24_1518",NA
"Recordings/vuva.wav","yes","v","v","u","no","a","vuva","Training","bilabial","TrainingItems",0,68,68,60,NA,NA,NA,NA,NA,NA,NA,NA,NA,NA,132,FALSE,21,59.9384082461,NA,"American English","VSH_Exp2","2016_Mar_24_1518",NA
"Recordings/piti.wav","no","p","t","i","yes","i","piti","Training","bilabial","TrainingItems",0,69,69,20,NA,NA,NA,NA,NA,NA,NA,NA,NA,NA,132,FALSE,21,59.9384082461,NA,"American English","VSH_Exp2","2016_Mar_24_1518",NA
"Recordings/tapu.wav","no","t","p","a","yes","u","tapu","Training","alveolar","TrainingItems",0,70,70,51,NA,NA,NA,NA,NA,NA,NA,NA,NA,NA,132,FALSE,21,59.9384082461,NA,"American English","VSH_Exp2","2016_Mar_24_1518",NA
"Recordings/vuzi.wav","yes","v","z","u","no","i","vuzi","Training","bilabial","TrainingItems",0,71,71,13,NA,NA,NA,NA,NA,NA,NA,NA,NA,NA,132,FALSE,21,59.9384082461,NA,"American English","VSH_Exp2","2016_Mar_24_1518",NA
"Recordings/vuzu.wav","yes","v","z","u","no","u","vuzu","Training","bilabial","TrainingItems",0,72,72,58,NA,NA,NA,NA,NA,NA,NA,NA,NA,NA,132,FALSE,21,59.9384082461,NA,"American English","VSH_Exp2","2016_Mar_24_1518",NA
"Recordings/sisu.wav","no","s","s","i","no","u","sisu","Training","alveolar","TrainingItems",0,73,73,21,NA,NA,NA,NA,NA,NA,NA,NA,NA,NA,132,FALSE,21,59.9384082461,NA,"American English","VSH_Exp2","2016_Mar_24_1518",NA
"Recordings/babi.wav","yes","b","b","a","yes","i","babi","Training","bilabial","TrainingItems",0,74,74,1,NA,NA,NA,NA,NA,NA,NA,NA,NA,NA,132,FALSE,21,59.9384082461,NA,"American English","VSH_Exp2","2016_Mar_24_1518",NA
"Recordings/badi.wav","yes","b","d","a","yes","i","badi","Training","bilabial","TrainingItems",0,75,75,10,NA,NA,NA,NA,NA,NA,NA,NA,NA,NA,132,FALSE,21,59.9384082461,NA,"American English","VSH_Exp2","2016_Mar_24_1518",NA
"Recordings/tutu.wav","no","t","t","u","yes","u","tutu","Training","alveolar","TrainingItems",0,76,76,32,NA,NA,NA,NA,NA,NA,NA,NA,NA,NA,132,FALSE,21,59.9384082461,NA,"American English","VSH_Exp2","2016_Mar_24_1518",NA
"Recordings/dibi.wav","yes","d","b","i","yes","i","dibi","Training","alveolar","TrainingItems",0,77,77,71,NA,NA,NA,NA,NA,NA,NA,NA,NA,NA,132,FALSE,21,59.9384082461,NA,"American English","VSH_Exp2","2016_Mar_24_1518",NA
"Recordings/patu.wav","no","p","t","a","yes","u","patu","Training","bilabial","TrainingItems",0,78,78,41,NA,NA,NA,NA,NA,NA,NA,NA,NA,NA,132,FALSE,21,59.9384082461,NA,"American English","VSH_Exp2","2016_Mar_24_1518",NA
"Recordings/vivi.wav","yes","v","v","i","no","i","vivi","Training","bilabial","TrainingItems",0,79,79,85,NA,NA,NA,NA,NA,NA,NA,NA,NA,NA,132,FALSE,21,59.9384082461,NA,"American English","VSH_Exp2","2016_Mar_24_1518",NA
"Recordings/fafa.wav","no","f","f","a","no","a","fafa","Training","bilabial","TrainingItems",0,80,80,19,NA,NA,NA,NA,NA,NA,NA,NA,NA,NA,132,FALSE,21,59.9384082461,NA,"American English","VSH_Exp2","2016_Mar_24_1518",NA
"Recordings/bubi.wav","yes","b","b","u","yes","i","bubi","Training","bilabial","TrainingItems",0,81,81,75,NA,NA,NA,NA,NA,NA,NA,NA,NA,NA,132,FALSE,21,59.9384082461,NA,"American English","VSH_Exp2","2016_Mar_24_1518",NA
"Recordings/pitu.wav","no","p","t","i","yes","u","pitu","Training","bilabial","TrainingItems",0,82,82,62,NA,NA,NA,NA,NA,NA,NA,NA,NA,NA,132,FALSE,21,59.9384082461,NA,"American English","VSH_Exp2","2016_Mar_24_1518",NA
"Recordings/zuzi.wav","yes","z","z","u","no","i","zuzi","Training","alveolar","TrainingItems",0,83,83,33,NA,NA,NA,NA,NA,NA,NA,NA,NA,NA,132,FALSE,21,59.9384082461,NA,"American English","VSH_Exp2","2016_Mar_24_1518",NA
"Recordings/zizi.wav","yes","z","z","i","no","i","zizi","Training","alveolar","TrainingItems",0,84,84,38,NA,NA,NA,NA,NA,NA,NA,NA,NA,NA,132,FALSE,21,59.9384082461,NA,"American English","VSH_Exp2","2016_Mar_24_1518",NA
"Recordings/tupi.wav","no","t","p","u","yes","i","tupi","Training","alveolar","TrainingItems",0,85,85,2,NA,NA,NA,NA,NA,NA,NA,NA,NA,NA,132,FALSE,21,59.9384082461,NA,"American English","VSH_Exp2","2016_Mar_24_1518",NA
"Recordings/fifa.wav","no","f","f","i","no","a","fifa","Training","bilabial","TrainingItems",0,86,86,64,NA,NA,NA,NA,NA,NA,NA,NA,NA,NA,132,FALSE,21,59.9384082461,NA,"American English","VSH_Exp2","2016_Mar_24_1518",NA
"Recordings/fafi.wav","no","f","f","a","no","i","fafi","Training","bilabial","TrainingItems",0,87,87,73,NA,NA,NA,NA,NA,NA,NA,NA,NA,NA,132,FALSE,21,59.9384082461,NA,"American English","VSH_Exp2","2016_Mar_24_1518",NA
"Recordings/zuzu.wav","yes","z","z","u","no","u","zuzu","Training","alveolar","TrainingItems",0,88,88,56,NA,NA,NA,NA,NA,NA,NA,NA,NA,NA,132,FALSE,21,59.9384082461,NA,"American English","VSH_Exp2","2016_Mar_24_1518",NA
"Recordings/tipa.wav","no","t","p","i","yes","a","tipa","Training","alveolar","TrainingItems",0,89,89,26,NA,NA,NA,NA,NA,NA,NA,NA,NA,NA,132,FALSE,21,59.9384082461,NA,"American English","VSH_Exp2","2016_Mar_24_1518",NA
"Recordings/puti.wav","no","p","t","u","yes","i","puti","Training","bilabial","TrainingItems",0,90,90,91,NA,NA,NA,NA,NA,NA,NA,NA,NA,NA,132,FALSE,21,59.9384082461,NA,"American English","VSH_Exp2","2016_Mar_24_1518",NA
"Recordings/bubu.wav","yes","b","b","u","yes","u","bubu","Training","bilabial","TrainingItems",0,91,91,61,NA,NA,NA,NA,NA,NA,NA,NA,NA,NA,132,FALSE,21,59.9384082461,NA,"American English","VSH_Exp2","2016_Mar_24_1518",NA
"Recordings/tupu.wav","no","t","p","u","yes","u","tupu","Training","alveolar","TrainingItems",0,92,92,16,NA,NA,NA,NA,NA,NA,NA,NA,NA,NA,132,FALSE,21,59.9384082461,NA,"American English","VSH_Exp2","2016_Mar_24_1518",NA
"Recordings/pipu.wav","no","p","p","i","yes","u","pipu","Training","bilabial","TrainingItems",0,93,93,9,NA,NA,NA,NA,NA,NA,NA,NA,NA,NA,132,FALSE,21,59.9384082461,NA,"American English","VSH_Exp2","2016_Mar_24_1518",NA
"Recordings/didu.wav","yes","d","d","i","yes","u","didu","Training","alveolar","TrainingItems",0,94,94,14,NA,NA,NA,NA,NA,NA,NA,NA,NA,NA,132,FALSE,21,59.9384082461,NA,"American English","VSH_Exp2","2016_Mar_24_1518",NA
"Recordings/didi.wav","yes","d","d","i","yes","i","didi","Training","alveolar","TrainingItems",0,95,95,57,NA,NA,NA,NA,NA,NA,NA,NA,NA,NA,132,FALSE,21,59.9384082461,NA,"American English","VSH_Exp2","2016_Mar_24_1518",NA
"Recordings/sisi.wav","no","s","s","i","no","i","sisi","Training","alveolar","TrainingItems",0,96,96,49,NA,NA,NA,NA,NA,NA,NA,NA,NA,NA,132,FALSE,21,59.9384082461,NA,"American English","VSH_Exp2","2016_Mar_24_1518",NA
"Recordings/bada.wav","yes","b","d","a","yes","a","bada","Training","bilabial","TrainingItems",0,97,97,45,NA,NA,NA,NA,NA,NA,NA,NA,NA,NA,132,FALSE,21,59.9384082461,NA,"American English","VSH_Exp2","2016_Mar_24_1518",NA
"Recordings/tati.wav","no","t","t","a","yes","i","tati","Training","alveolar","TrainingItems",0,98,98,7,NA,NA,NA,NA,NA,NA,NA,NA,NA,NA,132,FALSE,21,59.9384082461,NA,"American English","VSH_Exp2","2016_Mar_24_1518",NA
"Recordings/vazu.wav","yes","v","z","a","no","u","vazu","Training","bilabial","TrainingItems",0,99,99,77,NA,NA,NA,NA,NA,NA,NA,NA,NA,NA,132,FALSE,21,59.9384082461,NA,"American English","VSH_Exp2","2016_Mar_24_1518",NA
"Recordings/fafa.wav","no","f","f","a","no","a","fafa","Training","bilabial","TrainingItems",1,0,100,19,NA,NA,NA,NA,NA,NA,NA,NA,NA,NA,132,FALSE,21,59.9384082461,NA,"American English","VSH_Exp2","2016_Mar_24_1518",NA
"Recordings/badi.wav","yes","b","d","a","yes","i","badi","Training","bilabial","TrainingItems",1,1,101,10,NA,NA,NA,NA,NA,NA,NA,NA,NA,NA,132,FALSE,21,59.9384082461,NA,"American English","VSH_Exp2","2016_Mar_24_1518",NA
"Recordings/putu.wav","no","p","t","u","yes","u","putu","Training","bilabial","TrainingItems",1,2,102,11,NA,NA,NA,NA,NA,NA,NA,NA,NA,NA,132,FALSE,21,59.9384082461,NA,"American English","VSH_Exp2","2016_Mar_24_1518",NA
"Recordings/tipu.wav","no","t","p","i","yes","u","tipu","Training","alveolar","TrainingItems",1,3,103,3,NA,NA,NA,NA,NA,NA,NA,NA,NA,NA,132,FALSE,21,59.9384082461,NA,"American English","VSH_Exp2","2016_Mar_24_1518",NA
"Recordings/babu.wav","yes","b","b","a","yes","u","babu","Training","bilabial","TrainingItems",1,4,104,53,NA,NA,NA,NA,NA,NA,NA,NA,NA,NA,132,FALSE,21,59.9384082461,NA,"American English","VSH_Exp2","2016_Mar_24_1518",NA
"Recordings/fifi.wav","no","f","f","i","no","i","fifi","Training","bilabial","TrainingItems",1,5,105,46,NA,NA,NA,NA,NA,NA,NA,NA,NA,NA,132,FALSE,21,59.9384082461,NA,"American English","VSH_Exp2","2016_Mar_24_1518",NA
"Recordings/badu.wav","yes","b","d","a","yes","u","badu","Training","bilabial","TrainingItems",1,6,106,93,NA,NA,NA,NA,NA,NA,NA,NA,NA,NA,132,FALSE,21,59.9384082461,NA,"American English","VSH_Exp2","2016_Mar_24_1518",NA
"Recordings/tupi.wav","no","t","p","u","yes","i","tupi","Training","alveolar","TrainingItems",1,7,107,2,NA,NA,NA,NA,NA,NA,NA,NA,NA,NA,132,FALSE,21,59.9384082461,NA,"American English","VSH_Exp2","2016_Mar_24_1518",NA
"Recordings/puti.wav","no","p","t","u","yes","i","puti","Training","bilabial","TrainingItems",1,8,108,91,NA,NA,NA,NA,NA,NA,NA,NA,NA,NA,132,FALSE,21,59.9384082461,NA,"American English","VSH_Exp2","2016_Mar_24_1518",NA
"Recordings/tati.wav","no","t","t","a","yes","i","tati","Training","alveolar","TrainingItems",1,9,109,7,NA,NA,NA,NA,NA,NA,NA,NA,NA,NA,132,FALSE,21,59.9384082461,NA,"American English","VSH_Exp2","2016_Mar_24_1518",NA
"Recordings/bida.wav","yes","b","d","i","yes","a","bida","Training","bilabial","TrainingItems",1,10,110,29,NA,NA,NA,NA,NA,NA,NA,NA,NA,NA,132,FALSE,21,59.9384082461,NA,"American English","VSH_Exp2","2016_Mar_24_1518",NA
"Recordings/tupu.wav","no","t","p","u","yes","u","tupu","Training","alveolar","TrainingItems",1,11,111,16,NA,NA,NA,NA,NA,NA,NA,NA,NA,NA,132,FALSE,21,59.9384082461,NA,"American English","VSH_Exp2","2016_Mar_24_1518",NA
"Recordings/vavi.wav","yes","v","v","a","no","i","vavi","Training","bilabial","TrainingItems",1,12,112,78,NA,NA,NA,NA,NA,NA,NA,NA,NA,NA,132,FALSE,21,59.9384082461,NA,"American English","VSH_Exp2","2016_Mar_24_1518",NA
"Recordings/dabi.wav","yes","d","b","a","yes","i","dabi","Training","alveolar","TrainingItems",1,13,113,30,NA,NA,NA,NA,NA,NA,NA,NA,NA,NA,132,FALSE,21,59.9384082461,NA,"American English","VSH_Exp2","2016_Mar_24_1518",NA
"Recordings/vuzi.wav","yes","v","z","u","no","i","vuzi","Training","bilabial","TrainingItems",1,14,114,13,NA,NA,NA,NA,NA,NA,NA,NA,NA,NA,132,FALSE,21,59.9384082461,NA,"American English","VSH_Exp2","2016_Mar_24_1518",NA
"Recordings/dida.wav","yes","d","d","i","yes","a","dida","Training","alveolar","TrainingItems",1,15,115,15,NA,NA,NA,NA,NA,NA,NA,NA,NA,NA,132,FALSE,21,59.9384082461,NA,"American English","VSH_Exp2","2016_Mar_24_1518",NA
"Recordings/sisi.wav","no","s","s","i","no","i","sisi","Training","alveolar","TrainingItems",1,16,116,49,NA,NA,NA,NA,NA,NA,NA,NA,NA,NA,132,FALSE,21,59.9384082461,NA,"American English","VSH_Exp2","2016_Mar_24_1518",NA
"Recordings/pupi.wav","no","p","p","u","yes","i","pupi","Training","bilabial","TrainingItems",1,17,117,47,NA,NA,NA,NA,NA,NA,NA,NA,NA,NA,132,FALSE,21,59.9384082461,NA,"American English","VSH_Exp2","2016_Mar_24_1518",NA
"Recordings/tipi.wav","no","t","p","i","yes","i","tipi","Training","alveolar","TrainingItems",1,18,118,99,NA,NA,NA,NA,NA,NA,NA,NA,NA,NA,132,FALSE,21,59.9384082461,NA,"American English","VSH_Exp2","2016_Mar_24_1518",NA
"Recordings/pipa.wav","no","p","p","i","yes","a","pipa","Training","bilabial","TrainingItems",1,19,119,42,NA,NA,NA,NA,NA,NA,NA,NA,NA,NA,132,FALSE,21,59.9384082461,NA,"American English","VSH_Exp2","2016_Mar_24_1518",NA
"Recordings/daba.wav","yes","d","b","a","yes","a","daba","Training","alveolar","TrainingItems",1,20,120,72,NA,NA,NA,NA,NA,NA,NA,NA,NA,NA,132,FALSE,21,59.9384082461,NA,"American English","VSH_Exp2","2016_Mar_24_1518",NA
"Recordings/dadu.wav","yes","d","d","a","yes","u","dadu","Training","alveolar","TrainingItems",1,21,121,25,NA,NA,NA,NA,NA,NA,NA,NA,NA,NA,132,FALSE,21,59.9384082461,NA,"American English","VSH_Exp2","2016_Mar_24_1518",NA
"Recordings/pati.wav","no","p","t","a","yes","i","pati","Training","bilabial","TrainingItems",1,22,122,34,NA,NA,NA,NA,NA,NA,NA,NA,NA,NA,132,FALSE,21,59.9384082461,NA,"American English","VSH_Exp2","2016_Mar_24_1518",NA
"Recordings/vuvi.wav","yes","v","v","u","no","i","vuvi","Training","bilabial","TrainingItems",1,23,123,63,NA,NA,NA,NA,NA,NA,NA,NA,NA,NA,132,FALSE,21,59.9384082461,NA,"American English","VSH_Exp2","2016_Mar_24_1518",NA
"Recordings/tutu.wav","no","t","t","u","yes","u","tutu","Training","alveolar","TrainingItems",1,24,124,32,NA,NA,NA,NA,NA,NA,NA,NA,NA,NA,132,FALSE,21,59.9384082461,NA,"American English","VSH_Exp2","2016_Mar_24_1518",NA
"Recordings/sisu.wav","no","s","s","i","no","u","sisu","Training","alveolar","TrainingItems",1,25,125,21,NA,NA,NA,NA,NA,NA,NA,NA,NA,NA,132,FALSE,21,59.9384082461,NA,"American English","VSH_Exp2","2016_Mar_24_1518",NA
"Recordings/bibu.wav","yes","b","b","i","yes","u","bibu","Training","bilabial","TrainingItems",1,26,126,18,NA,NA,NA,NA,NA,NA,NA,NA,NA,NA,132,FALSE,21,59.9384082461,NA,"American English","VSH_Exp2","2016_Mar_24_1518",NA
"Recordings/pipi.wav","no","p","p","i","yes","i","pipi","Training","bilabial","TrainingItems",1,27,127,76,NA,NA,NA,NA,NA,NA,NA,NA,NA,NA,132,FALSE,21,59.9384082461,NA,"American English","VSH_Exp2","2016_Mar_24_1518",NA
"Recordings/sasa.wav","no","s","s","a","no","a","sasa","Training","alveolar","TrainingItems",1,28,128,97,NA,NA,NA,NA,NA,NA,NA,NA,NA,NA,132,FALSE,21,59.9384082461,NA,"American English","VSH_Exp2","2016_Mar_24_1518",NA
"Recordings/viva.wav","yes","v","v","i","no","a","viva","Training","bilabial","TrainingItems",1,29,129,40,NA,NA,NA,NA,NA,NA,NA,NA,NA,NA,132,FALSE,21,59.9384082461,NA,"American English","VSH_Exp2","2016_Mar_24_1518",NA
"Recordings/bubu.wav","yes","b","b","u","yes","u","bubu","Training","bilabial","TrainingItems",1,30,130,61,NA,NA,NA,NA,NA,NA,NA,NA,NA,NA,132,FALSE,21,59.9384082461,NA,"American English","VSH_Exp2","2016_Mar_24_1518",NA
"Recordings/tupa.wav","no","t","p","u","yes","a","tupa","Training","alveolar","TrainingItems",1,31,131,95,NA,NA,NA,NA,NA,NA,NA,NA,NA,NA,132,FALSE,21,59.9384082461,NA,"American English","VSH_Exp2","2016_Mar_24_1518",NA
"Recordings/fifa.wav","no","f","f","i","no","a","fifa","Training","bilabial","TrainingItems",1,32,132,64,NA,NA,NA,NA,NA,NA,NA,NA,NA,NA,132,FALSE,21,59.9384082461,NA,"American English","VSH_Exp2","2016_Mar_24_1518",NA
"Recordings/ziva.wav","yes","z","v","i","no","a","ziva","Training","alveolar","TrainingItems",1,33,133,6,NA,NA,NA,NA,NA,NA,NA,NA,NA,NA,132,FALSE,21,59.9384082461,NA,"American English","VSH_Exp2","2016_Mar_24_1518",NA
"Recordings/vuza.wav","yes","v","z","u","no","a","vuza","Training","bilabial","TrainingItems",1,34,134,31,NA,NA,NA,NA,NA,NA,NA,NA,NA,NA,132,FALSE,21,59.9384082461,NA,"American English","VSH_Exp2","2016_Mar_24_1518",NA
"Recordings/baba.wav","yes","b","b","a","yes","a","baba","Training","bilabial","TrainingItems",1,35,135,0,NA,NA,NA,NA,NA,NA,NA,NA,NA,NA,132,FALSE,21,59.9384082461,NA,"American English","VSH_Exp2","2016_Mar_24_1518",NA
"Recordings/susi.wav","no","s","s","u","no","i","susi","Training","alveolar","TrainingItems",1,36,136,28,NA,NA,NA,NA,NA,NA,NA,NA,NA,NA,132,FALSE,21,59.9384082461,NA,"American English","VSH_Exp2","2016_Mar_24_1518",NA
"Recordings/vazu.wav","yes","v","z","a","no","u","vazu","Training","bilabial","TrainingItems",1,37,137,77,NA,NA,NA,NA,NA,NA,NA,NA,NA,NA,132,FALSE,21,59.9384082461,NA,"American English","VSH_Exp2","2016_Mar_24_1518",NA
"Recordings/tapi.wav","no","t","p","a","yes","i","tapi","Training","alveolar","TrainingItems",1,38,138,66,NA,NA,NA,NA,NA,NA,NA,NA,NA,NA,132,FALSE,21,59.9384082461,NA,"American English","VSH_Exp2","2016_Mar_24_1518",NA
"Recordings/bidu.wav","yes","b","d","i","yes","u","bidu","Training","bilabial","TrainingItems",1,39,139,74,NA,NA,NA,NA,NA,NA,NA,NA,NA,NA,132,FALSE,21,59.9384082461,NA,"American English","VSH_Exp2","2016_Mar_24_1518",NA
"Recordings/ziza.wav","yes","z","z","i","no","a","ziza","Training","alveolar","TrainingItems",1,40,140,67,NA,NA,NA,NA,NA,NA,NA,NA,NA,NA,132,FALSE,21,59.9384082461,NA,"American English","VSH_Exp2","2016_Mar_24_1518",NA
"Recordings/vaza.wav","yes","v","z","a","no","a","vaza","Training","bilabial","TrainingItems",1,41,141,39,NA,NA,NA,NA,NA,NA,NA,NA,NA,NA,132,FALSE,21,59.9384082461,NA,"American English","VSH_Exp2","2016_Mar_24_1518",NA
"Recordings/vivi.wav","yes","v","v","i","no","i","vivi","Training","bilabial","TrainingItems",1,42,142,85,NA,NA,NA,NA,NA,NA,NA,NA,NA,NA,132,FALSE,21,59.9384082461,NA,"American English","VSH_Exp2","2016_Mar_24_1518",NA
"Recordings/pipu.wav","no","p","p","i","yes","u","pipu","Training","bilabial","TrainingItems",1,43,143,9,NA,NA,NA,NA,NA,NA,NA,NA,NA,NA,132,FALSE,21,59.9384082461,NA,"American English","VSH_Exp2","2016_Mar_24_1518",NA
"Recordings/tapa.wav","no","t","p","a","yes","a","tapa","Training","alveolar","TrainingItems",1,44,144,27,NA,NA,NA,NA,NA,NA,NA,NA,NA,NA,132,FALSE,21,59.9384082461,NA,"American English","VSH_Exp2","2016_Mar_24_1518",NA
"Recordings/zizu.wav","yes","z","z","i","no","u","zizu","Training","alveolar","TrainingItems",1,45,145,23,NA,NA,NA,NA,NA,NA,NA,NA,NA,NA,132,FALSE,21,59.9384082461,NA,"American English","VSH_Exp2","2016_Mar_24_1518",NA
"Recordings/buda.wav","yes","b","d","u","yes","a","buda","Training","bilabial","TrainingItems",1,46,146,83,NA,NA,NA,NA,NA,NA,NA,NA,NA,NA,132,FALSE,21,59.9384082461,NA,"American English","VSH_Exp2","2016_Mar_24_1518",NA
"Recordings/bidi.wav","yes","b","d","i","yes","i","bidi","Training","bilabial","TrainingItems",1,47,147,87,NA,NA,NA,NA,NA,NA,NA,NA,NA,NA,132,FALSE,21,59.9384082461,NA,"American English","VSH_Exp2","2016_Mar_24_1518",NA
"Recordings/susu.wav","no","s","s","u","no","u","susu","Training","alveolar","TrainingItems",1,48,148,90,NA,NA,NA,NA,NA,NA,NA,NA,NA,NA,132,FALSE,21,59.9384082461,NA,"American English","VSH_Exp2","2016_Mar_24_1518",NA
"Recordings/tipa.wav","no","t","p","i","yes","a","tipa","Training","alveolar","TrainingItems",1,49,149,26,NA,NA,NA,NA,NA,NA,NA,NA,NA,NA,132,FALSE,21,59.9384082461,NA,"American English","VSH_Exp2","2016_Mar_24_1518",NA
"Recordings/titi.wav","no","t","t","i","yes","i","titi","Training","alveolar","TrainingItems",1,50,150,70,NA,NA,NA,NA,NA,NA,NA,NA,NA,NA,132,FALSE,21,59.9384082461,NA,"American English","VSH_Exp2","2016_Mar_24_1518",NA
"Recordings/bibi.wav","yes","b","b","i","yes","i","bibi","Training","bilabial","TrainingItems",1,51,151,89,NA,NA,NA,NA,NA,NA,NA,NA,NA,NA,132,FALSE,21,59.9384082461,NA,"American English","VSH_Exp2","2016_Mar_24_1518",NA
"Recordings/pata.wav","no","p","t","a","yes","a","pata","Training","bilabial","TrainingItems",1,52,152,55,NA,NA,NA,NA,NA,NA,NA,NA,NA,NA,132,FALSE,21,59.9384082461,NA,"American English","VSH_Exp2","2016_Mar_24_1518",NA
"Recordings/dudi.wav","yes","d","d","u","yes","i","dudi","Training","alveolar","TrainingItems",1,53,153,35,NA,NA,NA,NA,NA,NA,NA,NA,NA,NA,132,FALSE,21,59.9384082461,NA,"American English","VSH_Exp2","2016_Mar_24_1518",NA
"Recordings/papa.wav","no","p","p","a","yes","a","papa","Training","bilabial","TrainingItems",1,54,154,59,NA,NA,NA,NA,NA,NA,NA,NA,NA,NA,132,FALSE,21,59.9384082461,NA,"American English","VSH_Exp2","2016_Mar_24_1518",NA
"Recordings/buba.wav","yes","b","b","u","yes","a","buba","Training","bilabial","TrainingItems",1,55,155,37,NA,NA,NA,NA,NA,NA,NA,NA,NA,NA,132,FALSE,21,59.9384082461,NA,"American English","VSH_Exp2","2016_Mar_24_1518",NA
"Recordings/piti.wav","no","p","t","i","yes","i","piti","Training","bilabial","TrainingItems",1,56,156,20,NA,NA,NA,NA,NA,NA,NA,NA,NA,NA,132,FALSE,21,59.9384082461,NA,"American English","VSH_Exp2","2016_Mar_24_1518",NA
"Recordings/zazu.wav","yes","z","z","a","no","u","zazu","Training","alveolar","TrainingItems",1,57,157,5,NA,NA,NA,NA,NA,NA,NA,NA,NA,NA,132,FALSE,21,59.9384082461,NA,"American English","VSH_Exp2","2016_Mar_24_1518",NA
"Recordings/zuzu.wav","yes","z","z","u","no","u","zuzu","Training","alveolar","TrainingItems",1,58,158,56,NA,NA,NA,NA,NA,NA,NA,NA,NA,NA,132,FALSE,21,59.9384082461,NA,"American English","VSH_Exp2","2016_Mar_24_1518",NA
"Recordings/bada.wav","yes","b","d","a","yes","a","bada","Training","bilabial","TrainingItems",1,59,159,45,NA,NA,NA,NA,NA,NA,NA,NA,NA,NA,132,FALSE,21,59.9384082461,NA,"American English","VSH_Exp2","2016_Mar_24_1518",NA
"Recordings/vuva.wav","yes","v","v","u","no","a","vuva","Training","bilabial","TrainingItems",1,60,160,60,NA,NA,NA,NA,NA,NA,NA,NA,NA,NA,132,FALSE,21,59.9384082461,NA,"American English","VSH_Exp2","2016_Mar_24_1518",NA
"Recordings/diba.wav","yes","d","b","i","yes","a","diba","Training","alveolar","TrainingItems",1,61,161,22,NA,NA,NA,NA,NA,NA,NA,NA,NA,NA,132,FALSE,21,59.9384082461,NA,"American English","VSH_Exp2","2016_Mar_24_1518",NA
"Recordings/zazi.wav","yes","z","z","a","no","i","zazi","Training","alveolar","TrainingItems",1,62,162,88,NA,NA,NA,NA,NA,NA,NA,NA,NA,NA,132,FALSE,21,59.9384082461,NA,"American English","VSH_Exp2","2016_Mar_24_1518",NA
"Recordings/vuvu.wav","yes","v","v","u","no","u","vuvu","Training","bilabial","TrainingItems",1,63,163,86,NA,NA,NA,NA,NA,NA,NA,NA,NA,NA,132,FALSE,21,59.9384082461,NA,"American English","VSH_Exp2","2016_Mar_24_1518",NA
"Recordings/didi.wav","yes","d","d","i","yes","i","didi","Training","alveolar","TrainingItems",1,64,164,57,NA,NA,NA,NA,NA,NA,NA,NA,NA,NA,132,FALSE,21,59.9384082461,NA,"American English","VSH_Exp2","2016_Mar_24_1518",NA
"Recordings/dabu.wav","yes","d","b","a","yes","u","dabu","Training","alveolar","TrainingItems",1,65,165,4,NA,NA,NA,NA,NA,NA,NA,NA,NA,NA,132,FALSE,21,59.9384082461,NA,"American English","VSH_Exp2","2016_Mar_24_1518",NA
"Recordings/vava.wav","yes","v","v","a","no","a","vava","Training","bilabial","TrainingItems",1,66,166,52,NA,NA,NA,NA,NA,NA,NA,NA,NA,NA,132,FALSE,21,59.9384082461,NA,"American English","VSH_Exp2","2016_Mar_24_1518",NA
"Recordings/dadi.wav","yes","d","d","a","yes","i","dadi","Training","alveolar","TrainingItems",1,67,167,50,NA,NA,NA,NA,NA,NA,NA,NA,NA,NA,132,FALSE,21,59.9384082461,NA,"American English","VSH_Exp2","2016_Mar_24_1518",NA
"Recordings/dibi.wav","yes","d","b","i","yes","i","dibi","Training","alveolar","TrainingItems",1,68,168,71,NA,NA,NA,NA,NA,NA,NA,NA,NA,NA,132,FALSE,21,59.9384082461,NA,"American English","VSH_Exp2","2016_Mar_24_1518",NA
"Recordings/fafi.wav","no","f","f","a","no","i","fafi","Training","bilabial","TrainingItems",1,69,169,73,NA,NA,NA,NA,NA,NA,NA,NA,NA,NA,132,FALSE,21,59.9384082461,NA,"American English","VSH_Exp2","2016_Mar_24_1518",NA
"Recordings/tuti.wav","no","t","t","u","yes","i","tuti","Training","alveolar","TrainingItems",1,70,170,92,NA,NA,NA,NA,NA,NA,NA,NA,NA,NA,132,FALSE,21,59.9384082461,NA,"American English","VSH_Exp2","2016_Mar_24_1518",NA
"Recordings/vizi.wav","yes","v","z","i","no","i","vizi","Training","bilabial","TrainingItems",1,71,171,12,NA,NA,NA,NA,NA,NA,NA,NA,NA,NA,132,FALSE,21,59.9384082461,NA,"American English","VSH_Exp2","2016_Mar_24_1518",NA
"Recordings/vuzu.wav","yes","v","z","u","no","u","vuzu","Training","bilabial","TrainingItems",1,72,172,58,NA,NA,NA,NA,NA,NA,NA,NA,NA,NA,132,FALSE,21,59.9384082461,NA,"American English","VSH_Exp2","2016_Mar_24_1518",NA
"Recordings/duda.wav","yes","d","d","u","yes","a","duda","Training","alveolar","TrainingItems",1,73,173,94,NA,NA,NA,NA,NA,NA,NA,NA,NA,NA,132,FALSE,21,59.9384082461,NA,"American English","VSH_Exp2","2016_Mar_24_1518",NA
"Recordings/fufu.wav","no","f","f","u","no","u","fufu","Training","bilabial","TrainingItems",1,74,174,79,NA,NA,NA,NA,NA,NA,NA,NA,NA,NA,132,FALSE,21,59.9384082461,NA,"American English","VSH_Exp2","2016_Mar_24_1518",NA
"Recordings/tapu.wav","no","t","p","a","yes","u","tapu","Training","alveolar","TrainingItems",1,75,175,51,NA,NA,NA,NA,NA,NA,NA,NA,NA,NA,132,FALSE,21,59.9384082461,NA,"American English","VSH_Exp2","2016_Mar_24_1518",NA
"Recordings/zava.wav","yes","z","v","a","no","a","zava","Training","alveolar","TrainingItems",1,76,176,43,NA,NA,NA,NA,NA,NA,NA,NA,NA,NA,132,FALSE,21,59.9384082461,NA,"American English","VSH_Exp2","2016_Mar_24_1518",NA
"Recordings/zavi.wav","yes","z","v","a","no","i","zavi","Training","alveolar","TrainingItems",1,77,177,36,NA,NA,NA,NA,NA,NA,NA,NA,NA,NA,132,FALSE,21,59.9384082461,NA,"American English","VSH_Exp2","2016_Mar_24_1518",NA
"Recordings/zuza.wav","yes","z","z","u","no","a","zuza","Training","alveolar","TrainingItems",1,78,178,84,NA,NA,NA,NA,NA,NA,NA,NA,NA,NA,132,FALSE,21,59.9384082461,NA,"American English","VSH_Exp2","2016_Mar_24_1518",NA
"Recordings/didu.wav","yes","d","d","i","yes","u","didu","Training","alveolar","TrainingItems",1,79,179,14,NA,NA,NA,NA,NA,NA,NA,NA,NA,NA,132,FALSE,21,59.9384082461,NA,"American English","VSH_Exp2","2016_Mar_24_1518",NA
"Recordings/budu.wav","yes","b","d","u","yes","u","budu","Training","bilabial","TrainingItems",1,80,180,98,NA,NA,NA,NA,NA,NA,NA,NA,NA,NA,132,FALSE,21,59.9384082461,NA,"American English","VSH_Exp2","2016_Mar_24_1518",NA
"Recordings/sisa.wav","no","s","s","i","no","a","sisa","Training","alveolar","TrainingItems",1,81,181,8,NA,NA,NA,NA,NA,NA,NA,NA,NA,NA,132,FALSE,21,59.9384082461,NA,"American English","VSH_Exp2","2016_Mar_24_1518",NA
"Recordings/tata.wav","no","t","t","a","yes","a","tata","Training","alveolar","TrainingItems",1,82,182,54,NA,NA,NA,NA,NA,NA,NA,NA,NA,NA,132,FALSE,21,59.9384082461,NA,"American English","VSH_Exp2","2016_Mar_24_1518",NA
"Recordings/zuzi.wav","yes","z","z","u","no","i","zuzi","Training","alveolar","TrainingItems",1,83,183,33,NA,NA,NA,NA,NA,NA,NA,NA,NA,NA,132,FALSE,21,59.9384082461,NA,"American English","VSH_Exp2","2016_Mar_24_1518",NA
"Recordings/tita.wav","no","t","t","i","yes","a","tita","Training","alveolar","TrainingItems",1,84,184,17,NA,NA,NA,NA,NA,NA,NA,NA,NA,NA,132,FALSE,21,59.9384082461,NA,"American English","VSH_Exp2","2016_Mar_24_1518",NA
"Recordings/vavu.wav","yes","v","v","a","no","u","vavu","Training","bilabial","TrainingItems",1,85,185,65,NA,NA,NA,NA,NA,NA,NA,NA,NA,NA,132,FALSE,21,59.9384082461,NA,"American English","VSH_Exp2","2016_Mar_24_1518",NA
"Recordings/duba.wav","yes","d","b","u","yes","a","duba","Training","alveolar","TrainingItems",1,86,186,81,NA,NA,NA,NA,NA,NA,NA,NA,NA,NA,132,FALSE,21,59.9384082461,NA,"American English","VSH_Exp2","2016_Mar_24_1518",NA
"Recordings/bubi.wav","yes","b","b","u","yes","i","bubi","Training","bilabial","TrainingItems",1,87,187,75,NA,NA,NA,NA,NA,NA,NA,NA,NA,NA,132,FALSE,21,59.9384082461,NA,"American English","VSH_Exp2","2016_Mar_24_1518",NA
"Recordings/babi.wav","yes","b","b","a","yes","i","babi","Training","bilabial","TrainingItems",1,88,188,1,NA,NA,NA,NA,NA,NA,NA,NA,NA,NA,132,FALSE,21,59.9384082461,NA,"American English","VSH_Exp2","2016_Mar_24_1518",NA
"Recordings/zuvu.wav","yes","z","v","u","no","u","zuvu","Training","alveolar","TrainingItems",1,89,189,24,NA,NA,NA,NA,NA,NA,NA,NA,NA,NA,132,FALSE,21,59.9384082461,NA,"American English","VSH_Exp2","2016_Mar_24_1518",NA
"Recordings/pupa.wav","no","p","p","u","yes","a","pupa","Training","bilabial","TrainingItems",1,90,190,96,NA,NA,NA,NA,NA,NA,NA,NA,NA,NA,132,FALSE,21,59.9384082461,NA,"American English","VSH_Exp2","2016_Mar_24_1518",NA
"Recordings/dudu.wav","yes","d","d","u","yes","u","dudu","Training","alveolar","TrainingItems",1,91,191,48,NA,NA,NA,NA,NA,NA,NA,NA,NA,NA,132,FALSE,21,59.9384082461,NA,"American English","VSH_Exp2","2016_Mar_24_1518",NA
"Recordings/pitu.wav","no","p","t","i","yes","u","pitu","Training","bilabial","TrainingItems",1,92,192,62,NA,NA,NA,NA,NA,NA,NA,NA,NA,NA,132,FALSE,21,59.9384082461,NA,"American English","VSH_Exp2","2016_Mar_24_1518",NA
"Recordings/zizi.wav","yes","z","z","i","no","i","zizi","Training","alveolar","TrainingItems",1,93,193,38,NA,NA,NA,NA,NA,NA,NA,NA,NA,NA,132,FALSE,21,59.9384082461,NA,"American English","VSH_Exp2","2016_Mar_24_1518",NA
"Recordings/zuvi.wav","yes","z","v","u","no","i","zuvi","Training","alveolar","TrainingItems",1,94,194,44,NA,NA,NA,NA,NA,NA,NA,NA,NA,NA,132,FALSE,21,59.9384082461,NA,"American English","VSH_Exp2","2016_Mar_24_1518",NA
"Recordings/papu.wav","no","p","p","a","yes","u","papu","Training","bilabial","TrainingItems",1,95,195,68,NA,NA,NA,NA,NA,NA,NA,NA,NA,NA,132,FALSE,21,59.9384082461,NA,"American English","VSH_Exp2","2016_Mar_24_1518",NA
"Recordings/patu.wav","no","p","t","a","yes","u","patu","Training","bilabial","TrainingItems",1,96,196,41,NA,NA,NA,NA,NA,NA,NA,NA,NA,NA,132,FALSE,21,59.9384082461,NA,"American English","VSH_Exp2","2016_Mar_24_1518",NA
"Recordings/pita.wav","no","p","t","i","yes","a","pita","Training","bilabial","TrainingItems",1,97,197,69,NA,NA,NA,NA,NA,NA,NA,NA,NA,NA,132,FALSE,21,59.9384082461,NA,"American English","VSH_Exp2","2016_Mar_24_1518",NA
"Recordings/dubu.wav","yes","d","b","u","yes","u","dubu","Training","alveolar","TrainingItems",1,98,198,80,NA,NA,NA,NA,NA,NA,NA,NA,NA,NA,132,FALSE,21,59.9384082461,NA,"American English","VSH_Exp2","2016_Mar_24_1518",NA
"Recordings/vizu.wav","yes","v","z","i","no","u","vizu","Training","bilabial","TrainingItems",1,99,199,82,NA,NA,NA,NA,NA,NA,NA,NA,NA,NA,132,FALSE,21,59.9384082461,NA,"American English","VSH_Exp2","2016_Mar_24_1518",NA
NA,NA,NA,NA,NA,NA,NA,NA,NA,NA,NA,NA,NA,NA,NA,NA,NA,NA,NA,NA,NA,"space",1.3012149334,NA,NA,132,FALSE,21,59.9384082461,NA,"American English","VSH_Exp2","2016_Mar_24_1518",NA
"Recordings/zadu.wav","yes","z","d","a","no","u","zadu","Controls","alveolar","VoicingControls",NA,NA,NA,NA,0,0,0,46,NA,NA,NA,NA,"Yes",4.324,132,FALSE,21,59.9384082461,NA,"American English","VSH_Exp2","2016_Mar_24_1518",NA
"Recordings/bibu.wav","yes","b","b","i","yes","u","bibu","Test","bilabial","OldTestStimuli",NA,NA,NA,NA,0,1,1,4,NA,NA,NA,NA,"Yes",1.604,132,FALSE,21,59.9384082461,NA,"American English","VSH_Exp2","2016_Mar_24_1518",NA
"Recordings/fusu.wav","no","f","s","u","no","u","fusu","Test","bilabial","NewConsTestStimuli",NA,NA,NA,NA,0,2,2,17,NA,NA,NA,NA,"No",2.272,132,FALSE,21,59.9384082461,NA,"American English","VSH_Exp2","2016_Mar_24_1518",NA
"Recordings/pipa.wav","no","p","p","i","yes","a","pipa","Test","bilabial","OldTestStimuli",NA,NA,NA,NA,0,3,3,9,NA,NA,NA,NA,"Yes",1.704,132,FALSE,21,59.9384082461,NA,"American English","VSH_Exp2","2016_Mar_24_1518",NA
"Recordings/bava.wav","yes","b","v","a","yes","a","bava","Controls","bilabial","VoicingControls",NA,NA,NA,NA,0,4,4,40,NA,NA,NA,NA,"No",1.904,132,FALSE,21,59.9384082461,NA,"American English","VSH_Exp2","2016_Mar_24_1518",NA
"Recordings/bizi.wav","yes","b","z","i","yes","i","bizi","Controls","bilabial","VoicingControls",NA,NA,NA,NA,0,5,5,41,NA,NA,NA,NA,"No",3.623,132,FALSE,21,59.9384082461,NA,"American English","VSH_Exp2","2016_Mar_24_1518",NA
"Recordings/pupu.wav","no","p","p","u","yes","u","pupu","Test","bilabial","NewWordTestStimuli",NA,NA,NA,NA,0,6,6,28,NA,NA,NA,NA,"Yes",1.571,132,FALSE,21,59.9384082461,NA,"American English","VSH_Exp2","2016_Mar_24_1518",NA
"Recordings/sasi.wav","no","s","s","a","no","i","sasi","Test","alveolar","NewWordTestStimuli",NA,NA,NA,NA,0,7,7,27,NA,NA,NA,NA,"No",2.489,132,FALSE,21,59.9384082461,NA,"American English","VSH_Exp2","2016_Mar_24_1518",NA
"Recordings/bibi.wav","yes","b","b","i","yes","i","bibi","Test","bilabial","OldTestStimuli",NA,NA,NA,NA,0,8,8,5,NA,NA,NA,NA,"Yes",1.17,132,FALSE,21,59.9384082461,NA,"American English","VSH_Exp2","2016_Mar_24_1518",NA
"Recordings/puda.wav","no","p","d","u","yes","a","puda","Controls","bilabial","StopControls",NA,NA,NA,NA,0,9,9,39,NA,NA,NA,NA,"Yes",2.972,132,FALSE,21,59.9384082461,NA,"American English","VSH_Exp2","2016_Mar_24_1518",NA
"Recordings/puvi.wav","no","p","v","u","yes","i","puvi","Controls","bilabial","NoPatternControls",NA,NA,NA,NA,0,10,10,59,NA,NA,NA,NA,"No",1.353,132,FALSE,21,59.9384082461,NA,"American English","VSH_Exp2","2016_Mar_24_1518",NA
"Recordings/siti.wav","no","s","t","i","no","i","siti","Controls","alveolar","VoicingControls",NA,NA,NA,NA,0,11,11,42,NA,NA,NA,NA,"No",1.637,132,FALSE,21,59.9384082461,NA,"American English","VSH_Exp2","2016_Mar_24_1518",NA
"Recordings/dubi.wav","yes","d","b","u","yes","i","dubi","Test","alveolar","NewWordTestStimuli",NA,NA,NA,NA,0,12,12,24,NA,NA,NA,NA,"Yes",0.853,132,FALSE,21,59.9384082461,NA,"American English","VSH_Exp2","2016_Mar_24_1518",NA
"Recordings/duda.wav","yes","d","d","u","yes","a","duda","Test","alveolar","OldTestStimuli",NA,NA,NA,NA,0,13,13,6,NA,NA,NA,NA,"Yes",0.636,132,FALSE,21,59.9384082461,NA,"American English","VSH_Exp2","2016_Mar_24_1518",NA
"Recordings/sufu.wav","no","s","f","u","no","u","sufu","Test","alveolar","NewConsTestStimuli",NA,NA,NA,NA,0,14,14,12,NA,NA,NA,NA,"No",1.704,132,FALSE,21,59.9384082461,NA,"American English","VSH_Exp2","2016_Mar_24_1518",NA
"Recordings/tudu.wav","no","t","d","u","yes","u","tudu","Controls","alveolar","StopControls",NA,NA,NA,NA,0,15,15,37,NA,NA,NA,NA,"Yes",1.204,132,FALSE,21,59.9384082461,NA,"American English","VSH_Exp2","2016_Mar_24_1518",NA
"Recordings/ziti.wav","yes","z","t","i","no","i","ziti","Controls","alveolar","NoPatternControls",NA,NA,NA,NA,0,16,16,55,NA,NA,NA,NA,"Yes",0.719,132,FALSE,21,59.9384082461,NA,"American English","VSH_Exp2","2016_Mar_24_1518",NA
"Recordings/tufu.wav","no","t","f","u","yes","u","tufu","Controls","alveolar","VoicingControls",NA,NA,NA,NA,0,17,17,47,NA,NA,NA,NA,"Yes",0.72,132,FALSE,21,59.9384082461,NA,"American English","VSH_Exp2","2016_Mar_24_1518",NA
"Recordings/baba.wav","yes","b","b","a","yes","a","baba","Test","bilabial","OldTestStimuli",NA,NA,NA,NA,0,18,18,0,NA,NA,NA,NA,"No",1.672,132,FALSE,21,59.9384082461,NA,"American English","VSH_Exp2","2016_Mar_24_1518",NA
"Recordings/tata.wav","no","t","t","a","yes","a","tata","Test","alveolar","OldTestStimuli",NA,NA,NA,NA,0,19,19,8,NA,NA,NA,NA,"Yes",1.922,132,FALSE,21,59.9384082461,NA,"American English","VSH_Exp2","2016_Mar_24_1518",NA
"Recordings/suda.wav","no","s","d","u","no","a","suda","Controls","alveolar","NoPatternControls",NA,NA,NA,NA,0,20,20,52,NA,NA,NA,NA,"No",1.854,132,FALSE,21,59.9384082461,NA,"American English","VSH_Exp2","2016_Mar_24_1518",NA
"Recordings/tiza.wav","no","t","z","i","yes","a","tiza","Controls","alveolar","NoPatternControls",NA,NA,NA,NA,0,21,21,57,NA,NA,NA,NA,"No",0.853,132,FALSE,21,59.9384082461,NA,"American English","VSH_Exp2","2016_Mar_24_1518",NA
"Recordings/bufu.wav","yes","b","f","u","yes","u","bufu","Controls","bilabial","NoPatternControls",NA,NA,NA,NA,0,22,22,50,NA,NA,NA,NA,"Yes",1.77,132,FALSE,21,59.9384082461,NA,"American English","VSH_Exp2","2016_Mar_24_1518",NA
"Recordings/tubu.wav","no","t","b","u","yes","u","tubu","Controls","alveolar","StopControls",NA,NA,NA,NA,0,23,23,33,NA,NA,NA,NA,"No",1.871,132,FALSE,21,59.9384082461,NA,"American English","VSH_Exp2","2016_Mar_24_1518",NA
"Recordings/zita.wav","yes","z","t","i","no","a","zita","Controls","alveolar","NoPatternControls",NA,NA,NA,NA,0,24,24,56,NA,NA,NA,NA,"No",6.343,132,FALSE,21,59.9384082461,NA,"American English","VSH_Exp2","2016_Mar_24_1518",NA
"Recordings/fusa.wav","no","f","s","u","no","a","fusa","Test","bilabial","NewConsTestStimuli",NA,NA,NA,NA,0,25,25,18,NA,NA,NA,NA,"No",1.37,132,FALSE,21,59.9384082461,NA,"American English","VSH_Exp2","2016_Mar_24_1518",NA
"Recordings/tavi.wav","no","t","v","a","yes","i","tavi","Controls","alveolar","NoPatternControls",NA,NA,NA,NA,0,26,26,53,NA,NA,NA,NA,"No",1.522,132,FALSE,21,59.9384082461,NA,"American English","VSH_Exp2","2016_Mar_24_1518",NA
"Recordings/dafu.wav","yes","d","f","a","yes","u","dafu","Controls","alveolar","NoPatternControls",NA,NA,NA,NA,0,27,27,54,NA,NA,NA,NA,"No",0.987,132,FALSE,21,59.9384082461,NA,"American English","VSH_Exp2","2016_Mar_24_1518",NA
"Recordings/fasi.wav","no","f","s","a","no","i","fasi","Test","bilabial","NewConsTestStimuli",NA,NA,NA,NA,0,28,28,19,NA,NA,NA,NA,"No",1.872,132,FALSE,21,59.9384082461,NA,"American English","VSH_Exp2","2016_Mar_24_1518",NA
"Recordings/ditu.wav","yes","d","t","i","yes","u","ditu","Controls","alveolar","StopControls",NA,NA,NA,NA,0,29,29,34,NA,NA,NA,NA,"Yes",1.654,132,FALSE,21,59.9384082461,NA,"American English","VSH_Exp2","2016_Mar_24_1518",NA
"Recordings/bafa.wav","yes","b","f","a","yes","a","bafa","Controls","bilabial","NoPatternControls",NA,NA,NA,NA,0,30,30,51,NA,NA,NA,NA,"No",1.554,132,FALSE,21,59.9384082461,NA,"American English","VSH_Exp2","2016_Mar_24_1518",NA
"Recordings/sata.wav","no","s","t","a","no","a","sata","Controls","alveolar","VoicingControls",NA,NA,NA,NA,0,31,31,48,NA,NA,NA,NA,"No",1.204,132,FALSE,21,59.9384082461,NA,"American English","VSH_Exp2","2016_Mar_24_1518",NA
"Recordings/safi.wav","no","s","f","a","no","i","safi","Test","alveolar","NewConsTestStimuli",NA,NA,NA,NA,0,32,32,16,NA,NA,NA,NA,"Yes",2.973,132,FALSE,21,59.9384082461,NA,"American English","VSH_Exp2","2016_Mar_24_1518",NA
"Recordings/tisu.wav","no","t","s","i","yes","u","tisu","Controls","alveolar","VoicingControls",NA,NA,NA,NA,0,33,33,43,NA,NA,NA,NA,"Yes",1.153,132,FALSE,21,59.9384082461,NA,"American English","VSH_Exp2","2016_Mar_24_1518",NA
"Recordings/vivu.wav","yes","v","v","i","no","u","vivu","Test","bilabial","NewWordTestStimuli",NA,NA,NA,NA,0,34,34,26,NA,NA,NA,NA,"Yes",0.954,132,FALSE,21,59.9384082461,NA,"American English","VSH_Exp2","2016_Mar_24_1518",NA
"Recordings/fisi.wav","no","f","s","i","no","i","fisi","Test","bilabial","NewConsTestStimuli",NA,NA,NA,NA,0,35,35,11,NA,NA,NA,NA,"Yes",0.886,132,FALSE,21,59.9384082461,NA,"American English","VSH_Exp2","2016_Mar_24_1518",NA
"Recordings/pusa.wav","no","p","s","u","yes","a","pusa","Controls","bilabial","VoicingControls",NA,NA,NA,NA,0,36,36,49,NA,NA,NA,NA,"No",1.471,132,FALSE,21,59.9384082461,NA,"American English","VSH_Exp2","2016_Mar_24_1518",NA
"Recordings/biba.wav","yes","b","b","i","yes","a","biba","Test","bilabial","NewWordTestStimuli",NA,NA,NA,NA,0,37,37,20,NA,NA,NA,NA,"Yes",2.237,132,FALSE,21,59.9384082461,NA,"American English","VSH_Exp2","2016_Mar_24_1518",NA
"Recordings/fisu.wav","no","f","s","i","no","u","fisu","Test","bilabial","NewConsTestStimuli",NA,NA,NA,NA,0,38,38,14,NA,NA,NA,NA,"Yes",1.221,132,FALSE,21,59.9384082461,NA,"American English","VSH_Exp2","2016_Mar_24_1518",NA
"Recordings/fufi.wav","no","f","f","u","no","i","fufi","Test","bilabial","NewWordTestStimuli",NA,NA,NA,NA,0,39,39,29,NA,NA,NA,NA,"Yes",0.97,132,FALSE,21,59.9384082461,NA,"American English","VSH_Exp2","2016_Mar_24_1518",NA
"Recordings/vuva.wav","yes","v","v","u","no","a","vuva","Test","bilabial","OldTestStimuli",NA,NA,NA,NA,0,40,40,2,NA,NA,NA,NA,"Yes",0.67,132,FALSE,21,59.9384082461,NA,"American English","VSH_Exp2","2016_Mar_24_1518",NA
"Recordings/sasu.wav","no","s","s","a","no","u","sasu","Test","alveolar","NewWordTestStimuli",NA,NA,NA,NA,0,41,41,22,NA,NA,NA,NA,"No",4.34,132,FALSE,21,59.9384082461,NA,"American English","VSH_Exp2","2016_Mar_24_1518",NA
"Recordings/viza.wav","yes","v","z","i","no","a","viza","Test","bilabial","NewWordTestStimuli",NA,NA,NA,NA,0,42,42,25,NA,NA,NA,NA,"No",1.304,132,FALSE,21,59.9384082461,NA,"American English","VSH_Exp2","2016_Mar_24_1518",NA
"Recordings/ziza.wav","yes","z","z","i","no","a","ziza","Test","alveolar","OldTestStimuli",NA,NA,NA,NA,0,43,43,7,NA,NA,NA,NA,"No",1.037,132,FALSE,21,59.9384082461,NA,"American English","VSH_Exp2","2016_Mar_24_1518",NA
"Recordings/zasi.wav","yes","z","s","a","no","i","zasi","Controls","alveolar","StopControls",NA,NA,NA,NA,0,44,44,35,NA,NA,NA,NA,"Yes",1.304,132,FALSE,21,59.9384082461,NA,"American English","VSH_Exp2","2016_Mar_24_1518",NA
"Recordings/bapa.wav","yes","b","p","a","yes","a","bapa","Controls","bilabial","StopControls",NA,NA,NA,NA,0,45,45,30,NA,NA,NA,NA,"No",0.635,132,FALSE,21,59.9384082461,NA,"American English","VSH_Exp2","2016_Mar_24_1518",NA
"Recordings/siza.wav","no","s","z","i","no","a","siza","Controls","alveolar","StopControls",NA,NA,NA,NA,0,46,46,32,NA,NA,NA,NA,"No",0.518,132,FALSE,21,59.9384082461,NA,"American English","VSH_Exp2","2016_Mar_24_1518",NA
"Recordings/zasu.wav","yes","z","s","a","no","u","zasu","Controls","alveolar","StopControls",NA,NA,NA,NA,0,47,47,36,NA,NA,NA,NA,"Yes",1.12,132,FALSE,21,59.9384082461,NA,"American English","VSH_Exp2","2016_Mar_24_1518",NA
"Recordings/biti.wav","yes","b","t","i","yes","i","biti","Controls","bilabial","StopControls",NA,NA,NA,NA,0,48,48,31,NA,NA,NA,NA,"Yes",1.004,132,FALSE,21,59.9384082461,NA,"American English","VSH_Exp2","2016_Mar_24_1518",NA
"Recordings/zadi.wav","yes","z","d","a","no","i","zadi","Controls","alveolar","VoicingControls",NA,NA,NA,NA,0,49,49,45,NA,NA,NA,NA,"No",1.571,132,FALSE,21,59.9384082461,NA,"American English","VSH_Exp2","2016_Mar_24_1518",NA
"Recordings/tapi.wav","no","t","p","a","yes","i","tapi","Test","alveolar","OldTestStimuli",NA,NA,NA,NA,0,50,50,3,NA,NA,NA,NA,"Yes",1.171,132,FALSE,21,59.9384082461,NA,"American English","VSH_Exp2","2016_Mar_24_1518",NA
"Recordings/titu.wav","no","t","t","i","yes","u","titu","Test","alveolar","NewWordTestStimuli",NA,NA,NA,NA,0,51,51,23,NA,NA,NA,NA,"Yes",0.836,132,FALSE,21,59.9384082461,NA,"American English","VSH_Exp2","2016_Mar_24_1518",NA
"Recordings/safa.wav","no","s","f","a","no","a","safa","Test","alveolar","NewConsTestStimuli",NA,NA,NA,NA,0,52,52,13,NA,NA,NA,NA,"No",1.154,132,FALSE,21,59.9384082461,NA,"American English","VSH_Exp2","2016_Mar_24_1518",NA
"Recordings/fisa.wav","no","f","s","i","no","a","fisa","Test","bilabial","NewConsTestStimuli",NA,NA,NA,NA,0,53,53,10,NA,NA,NA,NA,"No",1.221,132,FALSE,21,59.9384082461,NA,"American English","VSH_Exp2","2016_Mar_24_1518",NA
"Recordings/tati.wav","no","t","t","a","yes","i","tati","Test","alveolar","OldTestStimuli",NA,NA,NA,NA,0,54,54,1,NA,NA,NA,NA,"Yes",0.903,132,FALSE,21,59.9384082461,NA,"American English","VSH_Exp2","2016_Mar_24_1518",NA
"Recordings/budi.wav","yes","b","d","u","yes","i","budi","Test","bilabial","NewWordTestStimuli",NA,NA,NA,NA,0,55,55,21,NA,NA,NA,NA,"No",1.504,132,FALSE,21,59.9384082461,NA,"American English","VSH_Exp2","2016_Mar_24_1518",NA
"Recordings/dizu.wav","yes","d","z","i","yes","u","dizu","Controls","alveolar","VoicingControls",NA,NA,NA,NA,0,56,56,44,NA,NA,NA,NA,"Yes",1.054,132,FALSE,21,59.9384082461,NA,"American English","VSH_Exp2","2016_Mar_24_1518",NA
"Recordings/sibu.wav","no","s","b","i","no","u","sibu","Controls","alveolar","NoPatternControls",NA,NA,NA,NA,0,57,57,58,NA,NA,NA,NA,"No",1.07,132,FALSE,21,59.9384082461,NA,"American English","VSH_Exp2","2016_Mar_24_1518",NA
"Recordings/safu.wav","no","s","f","a","no","u","safu","Test","alveolar","NewConsTestStimuli",NA,NA,NA,NA,0,58,58,15,NA,NA,NA,NA,"Yes",1.037,132,FALSE,21,59.9384082461,NA,"American English","VSH_Exp2","2016_Mar_24_1518",NA
"Recordings/savu.wav","no","s","v","a","no","u","savu","Controls","alveolar","StopControls",NA,NA,NA,NA,0,59,59,38,NA,NA,NA,NA,"No",1.804,132,FALSE,21,59.9384082461,NA,"American English","VSH_Exp2","2016_Mar_24_1518",NA
