"SOUND","VOICING","SEGMENT","SEGMENT3","SEGMENT2","STOP","SEGMENT4","STIMULUS","GENERAL_TYPE","PLACE","TYPE","trials.thisRepN","trials.thisTrialN","trials.thisN","trials.thisIndex","trials_2.thisRepN","trials_2.thisTrialN","trials_2.thisN","trials_2.thisIndex","SpaceBar.keys","SpaceBar.rt","key_resp_2.keys","key_resp_2.rt","rating.response","rating.rt","participant","Gender","Age","frameRate","OtherLanguages","NativeLanguage","expName","date","X34"
NA,NA,NA,NA,NA,NA,NA,NA,NA,NA,NA,NA,NA,NA,NA,NA,NA,NA,NA,"space",5.10495591164,NA,NA,NA,NA,133,FALSE,20,59.9398644091,"somali","American English","VSH_Exp2","2016_Mar_24_1518",NA
"Recordings/sasu.wav","no","s","s","a","no","u","sasu","Training","alveolar","TrainingItems",0,0,0,65,NA,NA,NA,NA,NA,NA,NA,NA,NA,NA,133,FALSE,20,59.9398644091,"somali","American English","VSH_Exp2","2016_Mar_24_1518",NA
"Recordings/sifi.wav","no","s","f","i","no","i","sifi","Training","alveolar","TrainingItems",0,1,1,46,NA,NA,NA,NA,NA,NA,NA,NA,NA,NA,133,FALSE,20,59.9398644091,"somali","American English","VSH_Exp2","2016_Mar_24_1518",NA
"Recordings/dudi.wav","yes","d","d","u","yes","i","dudi","Training","alveolar","TrainingItems",0,2,2,89,NA,NA,NA,NA,NA,NA,NA,NA,NA,NA,133,FALSE,20,59.9398644091,"somali","American English","VSH_Exp2","2016_Mar_24_1518",NA
"Recordings/babi.wav","yes","b","b","a","yes","i","babi","Training","bilabial","TrainingItems",0,3,3,14,NA,NA,NA,NA,NA,NA,NA,NA,NA,NA,133,FALSE,20,59.9398644091,"somali","American English","VSH_Exp2","2016_Mar_24_1518",NA
"Recordings/dudu.wav","yes","d","d","u","yes","u","dudu","Training","alveolar","TrainingItems",0,4,4,73,NA,NA,NA,NA,NA,NA,NA,NA,NA,NA,133,FALSE,20,59.9398644091,"somali","American English","VSH_Exp2","2016_Mar_24_1518",NA
"Recordings/zizi.wav","yes","z","z","i","no","i","zizi","Training","alveolar","TrainingItems",0,5,5,64,NA,NA,NA,NA,NA,NA,NA,NA,NA,NA,133,FALSE,20,59.9398644091,"somali","American English","VSH_Exp2","2016_Mar_24_1518",NA
"Recordings/pupi.wav","no","p","p","u","yes","i","pupi","Training","bilabial","TrainingItems",0,6,6,47,NA,NA,NA,NA,NA,NA,NA,NA,NA,NA,133,FALSE,20,59.9398644091,"somali","American English","VSH_Exp2","2016_Mar_24_1518",NA
"Recordings/bidi.wav","yes","b","d","i","yes","i","bidi","Training","bilabial","TrainingItems",0,7,7,19,NA,NA,NA,NA,NA,NA,NA,NA,NA,NA,133,FALSE,20,59.9398644091,"somali","American English","VSH_Exp2","2016_Mar_24_1518",NA
"Recordings/vivi.wav","yes","v","v","i","no","i","vivi","Training","bilabial","TrainingItems",0,8,8,87,NA,NA,NA,NA,NA,NA,NA,NA,NA,NA,133,FALSE,20,59.9398644091,"somali","American English","VSH_Exp2","2016_Mar_24_1518",NA
"Recordings/vuva.wav","yes","v","v","u","no","a","vuva","Training","bilabial","TrainingItems",0,9,9,39,NA,NA,NA,NA,NA,NA,NA,NA,NA,NA,133,FALSE,20,59.9398644091,"somali","American English","VSH_Exp2","2016_Mar_24_1518",NA
"Recordings/buda.wav","yes","b","d","u","yes","a","buda","Training","bilabial","TrainingItems",0,10,10,17,NA,NA,NA,NA,NA,NA,NA,NA,NA,NA,133,FALSE,20,59.9398644091,"somali","American English","VSH_Exp2","2016_Mar_24_1518",NA
"Recordings/tuta.wav","no","t","t","u","yes","a","tuta","Training","alveolar","TrainingItems",0,11,11,52,NA,NA,NA,NA,NA,NA,NA,NA,NA,NA,133,FALSE,20,59.9398644091,"somali","American English","VSH_Exp2","2016_Mar_24_1518",NA
"Recordings/pitu.wav","no","p","t","i","yes","u","pitu","Training","bilabial","TrainingItems",0,12,12,40,NA,NA,NA,NA,NA,NA,NA,NA,NA,NA,133,FALSE,20,59.9398644091,"somali","American English","VSH_Exp2","2016_Mar_24_1518",NA
"Recordings/puta.wav","no","p","t","u","yes","a","puta","Training","bilabial","TrainingItems",0,13,13,94,NA,NA,NA,NA,NA,NA,NA,NA,NA,NA,133,FALSE,20,59.9398644091,"somali","American English","VSH_Exp2","2016_Mar_24_1518",NA
"Recordings/zuza.wav","yes","z","z","u","no","a","zuza","Training","alveolar","TrainingItems",0,14,14,69,NA,NA,NA,NA,NA,NA,NA,NA,NA,NA,133,FALSE,20,59.9398644091,"somali","American English","VSH_Exp2","2016_Mar_24_1518",NA
"Recordings/fisi.wav","no","f","s","i","no","i","fisi","Training","bilabial","TrainingItems",0,15,15,60,NA,NA,NA,NA,NA,NA,NA,NA,NA,NA,133,FALSE,20,59.9398644091,"somali","American English","VSH_Exp2","2016_Mar_24_1518",NA
"Recordings/bidu.wav","yes","b","d","i","yes","u","bidu","Training","bilabial","TrainingItems",0,16,16,35,NA,NA,NA,NA,NA,NA,NA,NA,NA,NA,133,FALSE,20,59.9398644091,"somali","American English","VSH_Exp2","2016_Mar_24_1518",NA
"Recordings/badu.wav","yes","b","d","a","yes","u","badu","Training","bilabial","TrainingItems",0,17,17,13,NA,NA,NA,NA,NA,NA,NA,NA,NA,NA,133,FALSE,20,59.9398644091,"somali","American English","VSH_Exp2","2016_Mar_24_1518",NA
"Recordings/safi.wav","no","s","f","a","no","i","safi","Training","alveolar","TrainingItems",0,18,18,22,NA,NA,NA,NA,NA,NA,NA,NA,NA,NA,133,FALSE,20,59.9398644091,"somali","American English","VSH_Exp2","2016_Mar_24_1518",NA
"Recordings/bibi.wav","yes","b","b","i","yes","i","bibi","Training","bilabial","TrainingItems",0,19,19,53,NA,NA,NA,NA,NA,NA,NA,NA,NA,NA,133,FALSE,20,59.9398644091,"somali","American English","VSH_Exp2","2016_Mar_24_1518",NA
"Recordings/ziza.wav","yes","z","z","i","no","a","ziza","Training","alveolar","TrainingItems",0,20,20,42,NA,NA,NA,NA,NA,NA,NA,NA,NA,NA,133,FALSE,20,59.9398644091,"somali","American English","VSH_Exp2","2016_Mar_24_1518",NA
"Recordings/fafa.wav","no","f","f","a","no","a","fafa","Training","bilabial","TrainingItems",0,21,21,58,NA,NA,NA,NA,NA,NA,NA,NA,NA,NA,133,FALSE,20,59.9398644091,"somali","American English","VSH_Exp2","2016_Mar_24_1518",NA
"Recordings/fisa.wav","no","f","s","i","no","a","fisa","Training","bilabial","TrainingItems",0,22,22,78,NA,NA,NA,NA,NA,NA,NA,NA,NA,NA,133,FALSE,20,59.9398644091,"somali","American English","VSH_Exp2","2016_Mar_24_1518",NA
"Recordings/titi.wav","no","t","t","i","yes","i","titi","Training","alveolar","TrainingItems",0,23,23,37,NA,NA,NA,NA,NA,NA,NA,NA,NA,NA,133,FALSE,20,59.9398644091,"somali","American English","VSH_Exp2","2016_Mar_24_1518",NA
"Recordings/dubi.wav","yes","d","b","u","yes","i","dubi","Training","alveolar","TrainingItems",0,24,24,70,NA,NA,NA,NA,NA,NA,NA,NA,NA,NA,133,FALSE,20,59.9398644091,"somali","American English","VSH_Exp2","2016_Mar_24_1518",NA
"Recordings/vavu.wav","yes","v","v","a","no","u","vavu","Training","bilabial","TrainingItems",0,25,25,81,NA,NA,NA,NA,NA,NA,NA,NA,NA,NA,133,FALSE,20,59.9398644091,"somali","American English","VSH_Exp2","2016_Mar_24_1518",NA
"Recordings/dabu.wav","yes","d","b","a","yes","u","dabu","Training","alveolar","TrainingItems",0,26,26,63,NA,NA,NA,NA,NA,NA,NA,NA,NA,NA,133,FALSE,20,59.9398644091,"somali","American English","VSH_Exp2","2016_Mar_24_1518",NA
"Recordings/tupu.wav","no","t","p","u","yes","u","tupu","Training","alveolar","TrainingItems",0,27,27,82,NA,NA,NA,NA,NA,NA,NA,NA,NA,NA,133,FALSE,20,59.9398644091,"somali","American English","VSH_Exp2","2016_Mar_24_1518",NA
"Recordings/zuzu.wav","yes","z","z","u","no","u","zuzu","Training","alveolar","TrainingItems",0,28,28,28,NA,NA,NA,NA,NA,NA,NA,NA,NA,NA,133,FALSE,20,59.9398644091,"somali","American English","VSH_Exp2","2016_Mar_24_1518",NA
"Recordings/puti.wav","no","p","t","u","yes","i","puti","Training","bilabial","TrainingItems",0,29,29,26,NA,NA,NA,NA,NA,NA,NA,NA,NA,NA,133,FALSE,20,59.9398644091,"somali","American English","VSH_Exp2","2016_Mar_24_1518",NA
"Recordings/budu.wav","yes","b","d","u","yes","u","budu","Training","bilabial","TrainingItems",0,30,30,15,NA,NA,NA,NA,NA,NA,NA,NA,NA,NA,133,FALSE,20,59.9398644091,"somali","American English","VSH_Exp2","2016_Mar_24_1518",NA
"Recordings/fufi.wav","no","f","f","u","no","i","fufi","Training","bilabial","TrainingItems",0,31,31,51,NA,NA,NA,NA,NA,NA,NA,NA,NA,NA,133,FALSE,20,59.9398644091,"somali","American English","VSH_Exp2","2016_Mar_24_1518",NA
"Recordings/didu.wav","yes","d","d","i","yes","u","didu","Training","alveolar","TrainingItems",0,32,32,50,NA,NA,NA,NA,NA,NA,NA,NA,NA,NA,133,FALSE,20,59.9398644091,"somali","American English","VSH_Exp2","2016_Mar_24_1518",NA
"Recordings/pita.wav","no","p","t","i","yes","a","pita","Training","bilabial","TrainingItems",0,33,33,97,NA,NA,NA,NA,NA,NA,NA,NA,NA,NA,133,FALSE,20,59.9398644091,"somali","American English","VSH_Exp2","2016_Mar_24_1518",NA
"Recordings/zazu.wav","yes","z","z","a","no","u","zazu","Training","alveolar","TrainingItems",0,34,34,24,NA,NA,NA,NA,NA,NA,NA,NA,NA,NA,133,FALSE,20,59.9398644091,"somali","American English","VSH_Exp2","2016_Mar_24_1518",NA
"Recordings/dadu.wav","yes","d","d","a","yes","u","dadu","Training","alveolar","TrainingItems",0,35,35,4,NA,NA,NA,NA,NA,NA,NA,NA,NA,NA,133,FALSE,20,59.9398644091,"somali","American English","VSH_Exp2","2016_Mar_24_1518",NA
"Recordings/fisu.wav","no","f","s","i","no","u","fisu","Training","bilabial","TrainingItems",0,36,36,76,NA,NA,NA,NA,NA,NA,NA,NA,NA,NA,133,FALSE,20,59.9398644091,"somali","American English","VSH_Exp2","2016_Mar_24_1518",NA
"Recordings/tutu.wav","no","t","t","u","yes","u","tutu","Training","alveolar","TrainingItems",0,37,37,9,NA,NA,NA,NA,NA,NA,NA,NA,NA,NA,133,FALSE,20,59.9398644091,"somali","American English","VSH_Exp2","2016_Mar_24_1518",NA
"Recordings/dada.wav","yes","d","d","a","yes","a","dada","Training","alveolar","TrainingItems",0,38,38,8,NA,NA,NA,NA,NA,NA,NA,NA,NA,NA,133,FALSE,20,59.9398644091,"somali","American English","VSH_Exp2","2016_Mar_24_1518",NA
"Recordings/fifu.wav","no","f","f","i","no","u","fifu","Training","bilabial","TrainingItems",0,39,39,56,NA,NA,NA,NA,NA,NA,NA,NA,NA,NA,133,FALSE,20,59.9398644091,"somali","American English","VSH_Exp2","2016_Mar_24_1518",NA
"Recordings/viva.wav","yes","v","v","i","no","a","viva","Training","bilabial","TrainingItems",0,40,40,41,NA,NA,NA,NA,NA,NA,NA,NA,NA,NA,133,FALSE,20,59.9398644091,"somali","American English","VSH_Exp2","2016_Mar_24_1518",NA
"Recordings/tapi.wav","no","t","p","a","yes","i","tapi","Training","alveolar","TrainingItems",0,41,41,74,NA,NA,NA,NA,NA,NA,NA,NA,NA,NA,133,FALSE,20,59.9398644091,"somali","American English","VSH_Exp2","2016_Mar_24_1518",NA
"Recordings/dubu.wav","yes","d","b","u","yes","u","dubu","Training","alveolar","TrainingItems",0,42,42,27,NA,NA,NA,NA,NA,NA,NA,NA,NA,NA,133,FALSE,20,59.9398644091,"somali","American English","VSH_Exp2","2016_Mar_24_1518",NA
"Recordings/fasu.wav","no","f","s","a","no","u","fasu","Training","bilabial","TrainingItems",0,43,43,31,NA,NA,NA,NA,NA,NA,NA,NA,NA,NA,133,FALSE,20,59.9398644091,"somali","American English","VSH_Exp2","2016_Mar_24_1518",NA
"Recordings/bada.wav","yes","b","d","a","yes","a","bada","Training","bilabial","TrainingItems",0,44,44,54,NA,NA,NA,NA,NA,NA,NA,NA,NA,NA,133,FALSE,20,59.9398644091,"somali","American English","VSH_Exp2","2016_Mar_24_1518",NA
"Recordings/zizu.wav","yes","z","z","i","no","u","zizu","Training","alveolar","TrainingItems",0,45,45,88,NA,NA,NA,NA,NA,NA,NA,NA,NA,NA,133,FALSE,20,59.9398644091,"somali","American English","VSH_Exp2","2016_Mar_24_1518",NA
"Recordings/vava.wav","yes","v","v","a","no","a","vava","Training","bilabial","TrainingItems",0,46,46,25,NA,NA,NA,NA,NA,NA,NA,NA,NA,NA,133,FALSE,20,59.9398644091,"somali","American English","VSH_Exp2","2016_Mar_24_1518",NA
"Recordings/tupi.wav","no","t","p","u","yes","i","tupi","Training","alveolar","TrainingItems",0,47,47,21,NA,NA,NA,NA,NA,NA,NA,NA,NA,NA,133,FALSE,20,59.9398644091,"somali","American English","VSH_Exp2","2016_Mar_24_1518",NA
"Recordings/dabi.wav","yes","d","b","a","yes","i","dabi","Training","alveolar","TrainingItems",0,48,48,18,NA,NA,NA,NA,NA,NA,NA,NA,NA,NA,133,FALSE,20,59.9398644091,"somali","American English","VSH_Exp2","2016_Mar_24_1518",NA
"Recordings/bubi.wav","yes","b","b","u","yes","i","bubi","Training","bilabial","TrainingItems",0,49,49,2,NA,NA,NA,NA,NA,NA,NA,NA,NA,NA,133,FALSE,20,59.9398644091,"somali","American English","VSH_Exp2","2016_Mar_24_1518",NA
"Recordings/pupu.wav","no","p","p","u","yes","u","pupu","Training","bilabial","TrainingItems",0,50,50,7,NA,NA,NA,NA,NA,NA,NA,NA,NA,NA,133,FALSE,20,59.9398644091,"somali","American English","VSH_Exp2","2016_Mar_24_1518",NA
"Recordings/sasi.wav","no","s","s","a","no","i","sasi","Training","alveolar","TrainingItems",0,51,51,99,NA,NA,NA,NA,NA,NA,NA,NA,NA,NA,133,FALSE,20,59.9398644091,"somali","American English","VSH_Exp2","2016_Mar_24_1518",NA
"Recordings/fusu.wav","no","f","s","u","no","u","fusu","Training","bilabial","TrainingItems",0,52,52,96,NA,NA,NA,NA,NA,NA,NA,NA,NA,NA,133,FALSE,20,59.9398644091,"somali","American English","VSH_Exp2","2016_Mar_24_1518",NA
"Recordings/sufu.wav","no","s","f","u","no","u","sufu","Training","alveolar","TrainingItems",0,53,53,62,NA,NA,NA,NA,NA,NA,NA,NA,NA,NA,133,FALSE,20,59.9398644091,"somali","American English","VSH_Exp2","2016_Mar_24_1518",NA
"Recordings/tatu.wav","no","t","t","a","yes","u","tatu","Training","alveolar","TrainingItems",0,54,54,12,NA,NA,NA,NA,NA,NA,NA,NA,NA,NA,133,FALSE,20,59.9398644091,"somali","American English","VSH_Exp2","2016_Mar_24_1518",NA
"Recordings/tata.wav","no","t","t","a","yes","a","tata","Training","alveolar","TrainingItems",0,55,55,5,NA,NA,NA,NA,NA,NA,NA,NA,NA,NA,133,FALSE,20,59.9398644091,"somali","American English","VSH_Exp2","2016_Mar_24_1518",NA
"Recordings/vivu.wav","yes","v","v","i","no","u","vivu","Training","bilabial","TrainingItems",0,56,56,30,NA,NA,NA,NA,NA,NA,NA,NA,NA,NA,133,FALSE,20,59.9398644091,"somali","American English","VSH_Exp2","2016_Mar_24_1518",NA
"Recordings/fafu.wav","no","f","f","a","no","u","fafu","Training","bilabial","TrainingItems",0,57,57,59,NA,NA,NA,NA,NA,NA,NA,NA,NA,NA,133,FALSE,20,59.9398644091,"somali","American English","VSH_Exp2","2016_Mar_24_1518",NA
"Recordings/tita.wav","no","t","t","i","yes","a","tita","Training","alveolar","TrainingItems",0,58,58,79,NA,NA,NA,NA,NA,NA,NA,NA,NA,NA,133,FALSE,20,59.9398644091,"somali","American English","VSH_Exp2","2016_Mar_24_1518",NA
"Recordings/bida.wav","yes","b","d","i","yes","a","bida","Training","bilabial","TrainingItems",0,59,59,44,NA,NA,NA,NA,NA,NA,NA,NA,NA,NA,133,FALSE,20,59.9398644091,"somali","American English","VSH_Exp2","2016_Mar_24_1518",NA
"Recordings/vuvi.wav","yes","v","v","u","no","i","vuvi","Training","bilabial","TrainingItems",0,60,60,80,NA,NA,NA,NA,NA,NA,NA,NA,NA,NA,133,FALSE,20,59.9398644091,"somali","American English","VSH_Exp2","2016_Mar_24_1518",NA
"Recordings/duda.wav","yes","d","d","u","yes","a","duda","Training","alveolar","TrainingItems",0,61,61,66,NA,NA,NA,NA,NA,NA,NA,NA,NA,NA,133,FALSE,20,59.9398644091,"somali","American English","VSH_Exp2","2016_Mar_24_1518",NA
"Recordings/piti.wav","no","p","t","i","yes","i","piti","Training","bilabial","TrainingItems",0,62,62,98,NA,NA,NA,NA,NA,NA,NA,NA,NA,NA,133,FALSE,20,59.9398644091,"somali","American English","VSH_Exp2","2016_Mar_24_1518",NA
"Recordings/fufu.wav","no","f","f","u","no","u","fufu","Training","bilabial","TrainingItems",0,63,63,91,NA,NA,NA,NA,NA,NA,NA,NA,NA,NA,133,FALSE,20,59.9398644091,"somali","American English","VSH_Exp2","2016_Mar_24_1518",NA
"Recordings/baba.wav","yes","b","b","a","yes","a","baba","Training","bilabial","TrainingItems",0,64,64,11,NA,NA,NA,NA,NA,NA,NA,NA,NA,NA,133,FALSE,20,59.9398644091,"somali","American English","VSH_Exp2","2016_Mar_24_1518",NA
"Recordings/tipa.wav","no","t","p","i","yes","a","tipa","Training","alveolar","TrainingItems",0,65,65,71,NA,NA,NA,NA,NA,NA,NA,NA,NA,NA,133,FALSE,20,59.9398644091,"somali","American English","VSH_Exp2","2016_Mar_24_1518",NA
"Recordings/tati.wav","no","t","t","a","yes","i","tati","Training","alveolar","TrainingItems",0,66,66,43,NA,NA,NA,NA,NA,NA,NA,NA,NA,NA,133,FALSE,20,59.9398644091,"somali","American English","VSH_Exp2","2016_Mar_24_1518",NA
"Recordings/pata.wav","no","p","t","a","yes","a","pata","Training","bilabial","TrainingItems",0,67,67,49,NA,NA,NA,NA,NA,NA,NA,NA,NA,NA,133,FALSE,20,59.9398644091,"somali","American English","VSH_Exp2","2016_Mar_24_1518",NA
"Recordings/sifa.wav","no","s","f","i","no","a","sifa","Training","alveolar","TrainingItems",0,68,68,33,NA,NA,NA,NA,NA,NA,NA,NA,NA,NA,133,FALSE,20,59.9398644091,"somali","American English","VSH_Exp2","2016_Mar_24_1518",NA
"Recordings/fasa.wav","no","f","s","a","no","a","fasa","Training","bilabial","TrainingItems",0,69,69,83,NA,NA,NA,NA,NA,NA,NA,NA,NA,NA,133,FALSE,20,59.9398644091,"somali","American English","VSH_Exp2","2016_Mar_24_1518",NA
"Recordings/fifa.wav","no","f","f","i","no","a","fifa","Training","bilabial","TrainingItems",0,70,70,85,NA,NA,NA,NA,NA,NA,NA,NA,NA,NA,133,FALSE,20,59.9398644091,"somali","American English","VSH_Exp2","2016_Mar_24_1518",NA
"Recordings/dadi.wav","yes","d","d","a","yes","i","dadi","Training","alveolar","TrainingItems",0,71,71,95,NA,NA,NA,NA,NA,NA,NA,NA,NA,NA,133,FALSE,20,59.9398644091,"somali","American English","VSH_Exp2","2016_Mar_24_1518",NA
"Recordings/tuti.wav","no","t","t","u","yes","i","tuti","Training","alveolar","TrainingItems",0,72,72,84,NA,NA,NA,NA,NA,NA,NA,NA,NA,NA,133,FALSE,20,59.9398644091,"somali","American English","VSH_Exp2","2016_Mar_24_1518",NA
"Recordings/putu.wav","no","p","t","u","yes","u","putu","Training","bilabial","TrainingItems",0,73,73,86,NA,NA,NA,NA,NA,NA,NA,NA,NA,NA,133,FALSE,20,59.9398644091,"somali","American English","VSH_Exp2","2016_Mar_24_1518",NA
"Recordings/sufi.wav","no","s","f","u","no","i","sufi","Training","alveolar","TrainingItems",0,74,74,1,NA,NA,NA,NA,NA,NA,NA,NA,NA,NA,133,FALSE,20,59.9398644091,"somali","American English","VSH_Exp2","2016_Mar_24_1518",NA
"Recordings/susu.wav","no","s","s","u","no","u","susu","Training","alveolar","TrainingItems",0,75,75,55,NA,NA,NA,NA,NA,NA,NA,NA,NA,NA,133,FALSE,20,59.9398644091,"somali","American English","VSH_Exp2","2016_Mar_24_1518",NA
"Recordings/duba.wav","yes","d","b","u","yes","a","duba","Training","alveolar","TrainingItems",0,76,76,77,NA,NA,NA,NA,NA,NA,NA,NA,NA,NA,133,FALSE,20,59.9398644091,"somali","American English","VSH_Exp2","2016_Mar_24_1518",NA
"Recordings/didi.wav","yes","d","d","i","yes","i","didi","Training","alveolar","TrainingItems",0,77,77,32,NA,NA,NA,NA,NA,NA,NA,NA,NA,NA,133,FALSE,20,59.9398644091,"somali","American English","VSH_Exp2","2016_Mar_24_1518",NA
"Recordings/vuvu.wav","yes","v","v","u","no","u","vuvu","Training","bilabial","TrainingItems",0,78,78,75,NA,NA,NA,NA,NA,NA,NA,NA,NA,NA,133,FALSE,20,59.9398644091,"somali","American English","VSH_Exp2","2016_Mar_24_1518",NA
"Recordings/dida.wav","yes","d","d","i","yes","a","dida","Training","alveolar","TrainingItems",0,79,79,48,NA,NA,NA,NA,NA,NA,NA,NA,NA,NA,133,FALSE,20,59.9398644091,"somali","American English","VSH_Exp2","2016_Mar_24_1518",NA
"Recordings/papa.wav","no","p","p","a","yes","a","papa","Training","bilabial","TrainingItems",0,80,80,6,NA,NA,NA,NA,NA,NA,NA,NA,NA,NA,133,FALSE,20,59.9398644091,"somali","American English","VSH_Exp2","2016_Mar_24_1518",NA
"Recordings/buba.wav","yes","b","b","u","yes","a","buba","Training","bilabial","TrainingItems",0,81,81,3,NA,NA,NA,NA,NA,NA,NA,NA,NA,NA,133,FALSE,20,59.9398644091,"somali","American English","VSH_Exp2","2016_Mar_24_1518",NA
"Recordings/bubu.wav","yes","b","b","u","yes","u","bubu","Training","bilabial","TrainingItems",0,82,82,16,NA,NA,NA,NA,NA,NA,NA,NA,NA,NA,133,FALSE,20,59.9398644091,"somali","American English","VSH_Exp2","2016_Mar_24_1518",NA
"Recordings/sifu.wav","no","s","f","i","no","u","sifu","Training","alveolar","TrainingItems",0,83,83,20,NA,NA,NA,NA,NA,NA,NA,NA,NA,NA,133,FALSE,20,59.9398644091,"somali","American English","VSH_Exp2","2016_Mar_24_1518",NA
"Recordings/pipa.wav","no","p","p","i","yes","a","pipa","Training","bilabial","TrainingItems",0,84,84,34,NA,NA,NA,NA,NA,NA,NA,NA,NA,NA,133,FALSE,20,59.9398644091,"somali","American English","VSH_Exp2","2016_Mar_24_1518",NA
"Recordings/badi.wav","yes","b","d","a","yes","i","badi","Training","bilabial","TrainingItems",0,85,85,61,NA,NA,NA,NA,NA,NA,NA,NA,NA,NA,133,FALSE,20,59.9398644091,"somali","American English","VSH_Exp2","2016_Mar_24_1518",NA
"Recordings/dibi.wav","yes","d","b","i","yes","i","dibi","Training","alveolar","TrainingItems",0,86,86,0,NA,NA,NA,NA,NA,NA,NA,NA,NA,NA,133,FALSE,20,59.9398644091,"somali","American English","VSH_Exp2","2016_Mar_24_1518",NA
"Recordings/fasi.wav","no","f","s","a","no","i","fasi","Training","bilabial","TrainingItems",0,87,87,36,NA,NA,NA,NA,NA,NA,NA,NA,NA,NA,133,FALSE,20,59.9398644091,"somali","American English","VSH_Exp2","2016_Mar_24_1518",NA
"Recordings/susi.wav","no","s","s","u","no","i","susi","Training","alveolar","TrainingItems",0,88,88,38,NA,NA,NA,NA,NA,NA,NA,NA,NA,NA,133,FALSE,20,59.9398644091,"somali","American English","VSH_Exp2","2016_Mar_24_1518",NA
"Recordings/fafi.wav","no","f","f","a","no","i","fafi","Training","bilabial","TrainingItems",0,89,89,72,NA,NA,NA,NA,NA,NA,NA,NA,NA,NA,133,FALSE,20,59.9398644091,"somali","American English","VSH_Exp2","2016_Mar_24_1518",NA
"Recordings/tipu.wav","no","t","p","i","yes","u","tipu","Training","alveolar","TrainingItems",0,90,90,57,NA,NA,NA,NA,NA,NA,NA,NA,NA,NA,133,FALSE,20,59.9398644091,"somali","American English","VSH_Exp2","2016_Mar_24_1518",NA
"Recordings/zazi.wav","yes","z","z","a","no","i","zazi","Training","alveolar","TrainingItems",0,91,91,93,NA,NA,NA,NA,NA,NA,NA,NA,NA,NA,133,FALSE,20,59.9398644091,"somali","American English","VSH_Exp2","2016_Mar_24_1518",NA
"Recordings/sisu.wav","no","s","s","i","no","u","sisu","Training","alveolar","TrainingItems",0,92,92,29,NA,NA,NA,NA,NA,NA,NA,NA,NA,NA,133,FALSE,20,59.9398644091,"somali","American English","VSH_Exp2","2016_Mar_24_1518",NA
"Recordings/zaza.wav","yes","z","z","a","no","a","zaza","Training","alveolar","TrainingItems",0,93,93,92,NA,NA,NA,NA,NA,NA,NA,NA,NA,NA,133,FALSE,20,59.9398644091,"somali","American English","VSH_Exp2","2016_Mar_24_1518",NA
"Recordings/vavi.wav","yes","v","v","a","no","i","vavi","Training","bilabial","TrainingItems",0,94,94,67,NA,NA,NA,NA,NA,NA,NA,NA,NA,NA,133,FALSE,20,59.9398644091,"somali","American English","VSH_Exp2","2016_Mar_24_1518",NA
"Recordings/diba.wav","yes","d","b","i","yes","a","diba","Training","alveolar","TrainingItems",0,95,95,45,NA,NA,NA,NA,NA,NA,NA,NA,NA,NA,133,FALSE,20,59.9398644091,"somali","American English","VSH_Exp2","2016_Mar_24_1518",NA
"Recordings/pupa.wav","no","p","p","u","yes","a","pupa","Training","bilabial","TrainingItems",0,96,96,23,NA,NA,NA,NA,NA,NA,NA,NA,NA,NA,133,FALSE,20,59.9398644091,"somali","American English","VSH_Exp2","2016_Mar_24_1518",NA
"Recordings/zuzi.wav","yes","z","z","u","no","i","zuzi","Training","alveolar","TrainingItems",0,97,97,10,NA,NA,NA,NA,NA,NA,NA,NA,NA,NA,133,FALSE,20,59.9398644091,"somali","American English","VSH_Exp2","2016_Mar_24_1518",NA
"Recordings/pipu.wav","no","p","p","i","yes","u","pipu","Training","bilabial","TrainingItems",0,98,98,90,NA,NA,NA,NA,NA,NA,NA,NA,NA,NA,133,FALSE,20,59.9398644091,"somali","American English","VSH_Exp2","2016_Mar_24_1518",NA
"Recordings/fifi.wav","no","f","f","i","no","i","fifi","Training","bilabial","TrainingItems",0,99,99,68,NA,NA,NA,NA,NA,NA,NA,NA,NA,NA,133,FALSE,20,59.9398644091,"somali","American English","VSH_Exp2","2016_Mar_24_1518",NA
"Recordings/bidi.wav","yes","b","d","i","yes","i","bidi","Training","bilabial","TrainingItems",1,0,100,19,NA,NA,NA,NA,NA,NA,NA,NA,NA,NA,133,FALSE,20,59.9398644091,"somali","American English","VSH_Exp2","2016_Mar_24_1518",NA
"Recordings/tatu.wav","no","t","t","a","yes","u","tatu","Training","alveolar","TrainingItems",1,1,101,12,NA,NA,NA,NA,NA,NA,NA,NA,NA,NA,133,FALSE,20,59.9398644091,"somali","American English","VSH_Exp2","2016_Mar_24_1518",NA
"Recordings/zuzu.wav","yes","z","z","u","no","u","zuzu","Training","alveolar","TrainingItems",1,2,102,28,NA,NA,NA,NA,NA,NA,NA,NA,NA,NA,133,FALSE,20,59.9398644091,"somali","American English","VSH_Exp2","2016_Mar_24_1518",NA
"Recordings/ziza.wav","yes","z","z","i","no","a","ziza","Training","alveolar","TrainingItems",1,3,103,42,NA,NA,NA,NA,NA,NA,NA,NA,NA,NA,133,FALSE,20,59.9398644091,"somali","American English","VSH_Exp2","2016_Mar_24_1518",NA
"Recordings/bidu.wav","yes","b","d","i","yes","u","bidu","Training","bilabial","TrainingItems",1,4,104,35,NA,NA,NA,NA,NA,NA,NA,NA,NA,NA,133,FALSE,20,59.9398644091,"somali","American English","VSH_Exp2","2016_Mar_24_1518",NA
"Recordings/tapi.wav","no","t","p","a","yes","i","tapi","Training","alveolar","TrainingItems",1,5,105,74,NA,NA,NA,NA,NA,NA,NA,NA,NA,NA,133,FALSE,20,59.9398644091,"somali","American English","VSH_Exp2","2016_Mar_24_1518",NA
"Recordings/pupi.wav","no","p","p","u","yes","i","pupi","Training","bilabial","TrainingItems",1,6,106,47,NA,NA,NA,NA,NA,NA,NA,NA,NA,NA,133,FALSE,20,59.9398644091,"somali","American English","VSH_Exp2","2016_Mar_24_1518",NA
"Recordings/bibi.wav","yes","b","b","i","yes","i","bibi","Training","bilabial","TrainingItems",1,7,107,53,NA,NA,NA,NA,NA,NA,NA,NA,NA,NA,133,FALSE,20,59.9398644091,"somali","American English","VSH_Exp2","2016_Mar_24_1518",NA
"Recordings/tipa.wav","no","t","p","i","yes","a","tipa","Training","alveolar","TrainingItems",1,8,108,71,NA,NA,NA,NA,NA,NA,NA,NA,NA,NA,133,FALSE,20,59.9398644091,"somali","American English","VSH_Exp2","2016_Mar_24_1518",NA
"Recordings/badu.wav","yes","b","d","a","yes","u","badu","Training","bilabial","TrainingItems",1,9,109,13,NA,NA,NA,NA,NA,NA,NA,NA,NA,NA,133,FALSE,20,59.9398644091,"somali","American English","VSH_Exp2","2016_Mar_24_1518",NA
"Recordings/dida.wav","yes","d","d","i","yes","a","dida","Training","alveolar","TrainingItems",1,10,110,48,NA,NA,NA,NA,NA,NA,NA,NA,NA,NA,133,FALSE,20,59.9398644091,"somali","American English","VSH_Exp2","2016_Mar_24_1518",NA
"Recordings/sifi.wav","no","s","f","i","no","i","sifi","Training","alveolar","TrainingItems",1,11,111,46,NA,NA,NA,NA,NA,NA,NA,NA,NA,NA,133,FALSE,20,59.9398644091,"somali","American English","VSH_Exp2","2016_Mar_24_1518",NA
"Recordings/fasu.wav","no","f","s","a","no","u","fasu","Training","bilabial","TrainingItems",1,12,112,31,NA,NA,NA,NA,NA,NA,NA,NA,NA,NA,133,FALSE,20,59.9398644091,"somali","American English","VSH_Exp2","2016_Mar_24_1518",NA
"Recordings/pata.wav","no","p","t","a","yes","a","pata","Training","bilabial","TrainingItems",1,13,113,49,NA,NA,NA,NA,NA,NA,NA,NA,NA,NA,133,FALSE,20,59.9398644091,"somali","American English","VSH_Exp2","2016_Mar_24_1518",NA
"Recordings/fafa.wav","no","f","f","a","no","a","fafa","Training","bilabial","TrainingItems",1,14,114,58,NA,NA,NA,NA,NA,NA,NA,NA,NA,NA,133,FALSE,20,59.9398644091,"somali","American English","VSH_Exp2","2016_Mar_24_1518",NA
"Recordings/buba.wav","yes","b","b","u","yes","a","buba","Training","bilabial","TrainingItems",1,15,115,3,NA,NA,NA,NA,NA,NA,NA,NA,NA,NA,133,FALSE,20,59.9398644091,"somali","American English","VSH_Exp2","2016_Mar_24_1518",NA
"Recordings/fifi.wav","no","f","f","i","no","i","fifi","Training","bilabial","TrainingItems",1,16,116,68,NA,NA,NA,NA,NA,NA,NA,NA,NA,NA,133,FALSE,20,59.9398644091,"somali","American English","VSH_Exp2","2016_Mar_24_1518",NA
"Recordings/tutu.wav","no","t","t","u","yes","u","tutu","Training","alveolar","TrainingItems",1,17,117,9,NA,NA,NA,NA,NA,NA,NA,NA,NA,NA,133,FALSE,20,59.9398644091,"somali","American English","VSH_Exp2","2016_Mar_24_1518",NA
"Recordings/zazi.wav","yes","z","z","a","no","i","zazi","Training","alveolar","TrainingItems",1,18,118,93,NA,NA,NA,NA,NA,NA,NA,NA,NA,NA,133,FALSE,20,59.9398644091,"somali","American English","VSH_Exp2","2016_Mar_24_1518",NA
"Recordings/duda.wav","yes","d","d","u","yes","a","duda","Training","alveolar","TrainingItems",1,19,119,66,NA,NA,NA,NA,NA,NA,NA,NA,NA,NA,133,FALSE,20,59.9398644091,"somali","American English","VSH_Exp2","2016_Mar_24_1518",NA
"Recordings/zizu.wav","yes","z","z","i","no","u","zizu","Training","alveolar","TrainingItems",1,20,120,88,NA,NA,NA,NA,NA,NA,NA,NA,NA,NA,133,FALSE,20,59.9398644091,"somali","American English","VSH_Exp2","2016_Mar_24_1518",NA
"Recordings/dubu.wav","yes","d","b","u","yes","u","dubu","Training","alveolar","TrainingItems",1,21,121,27,NA,NA,NA,NA,NA,NA,NA,NA,NA,NA,133,FALSE,20,59.9398644091,"somali","American English","VSH_Exp2","2016_Mar_24_1518",NA
"Recordings/bida.wav","yes","b","d","i","yes","a","bida","Training","bilabial","TrainingItems",1,22,122,44,NA,NA,NA,NA,NA,NA,NA,NA,NA,NA,133,FALSE,20,59.9398644091,"somali","American English","VSH_Exp2","2016_Mar_24_1518",NA
"Recordings/tita.wav","no","t","t","i","yes","a","tita","Training","alveolar","TrainingItems",1,23,123,79,NA,NA,NA,NA,NA,NA,NA,NA,NA,NA,133,FALSE,20,59.9398644091,"somali","American English","VSH_Exp2","2016_Mar_24_1518",NA
"Recordings/vuva.wav","yes","v","v","u","no","a","vuva","Training","bilabial","TrainingItems",1,24,124,39,NA,NA,NA,NA,NA,NA,NA,NA,NA,NA,133,FALSE,20,59.9398644091,"somali","American English","VSH_Exp2","2016_Mar_24_1518",NA
"Recordings/sasu.wav","no","s","s","a","no","u","sasu","Training","alveolar","TrainingItems",1,25,125,65,NA,NA,NA,NA,NA,NA,NA,NA,NA,NA,133,FALSE,20,59.9398644091,"somali","American English","VSH_Exp2","2016_Mar_24_1518",NA
"Recordings/pipu.wav","no","p","p","i","yes","u","pipu","Training","bilabial","TrainingItems",1,26,126,90,NA,NA,NA,NA,NA,NA,NA,NA,NA,NA,133,FALSE,20,59.9398644091,"somali","American English","VSH_Exp2","2016_Mar_24_1518",NA
"Recordings/tuti.wav","no","t","t","u","yes","i","tuti","Training","alveolar","TrainingItems",1,27,127,84,NA,NA,NA,NA,NA,NA,NA,NA,NA,NA,133,FALSE,20,59.9398644091,"somali","American English","VSH_Exp2","2016_Mar_24_1518",NA
"Recordings/papa.wav","no","p","p","a","yes","a","papa","Training","bilabial","TrainingItems",1,28,128,6,NA,NA,NA,NA,NA,NA,NA,NA,NA,NA,133,FALSE,20,59.9398644091,"somali","American English","VSH_Exp2","2016_Mar_24_1518",NA
"Recordings/zaza.wav","yes","z","z","a","no","a","zaza","Training","alveolar","TrainingItems",1,29,129,92,NA,NA,NA,NA,NA,NA,NA,NA,NA,NA,133,FALSE,20,59.9398644091,"somali","American English","VSH_Exp2","2016_Mar_24_1518",NA
"Recordings/bubi.wav","yes","b","b","u","yes","i","bubi","Training","bilabial","TrainingItems",1,30,130,2,NA,NA,NA,NA,NA,NA,NA,NA,NA,NA,133,FALSE,20,59.9398644091,"somali","American English","VSH_Exp2","2016_Mar_24_1518",NA
"Recordings/dibi.wav","yes","d","b","i","yes","i","dibi","Training","alveolar","TrainingItems",1,31,131,0,NA,NA,NA,NA,NA,NA,NA,NA,NA,NA,133,FALSE,20,59.9398644091,"somali","American English","VSH_Exp2","2016_Mar_24_1518",NA
"Recordings/sufi.wav","no","s","f","u","no","i","sufi","Training","alveolar","TrainingItems",1,32,132,1,NA,NA,NA,NA,NA,NA,NA,NA,NA,NA,133,FALSE,20,59.9398644091,"somali","American English","VSH_Exp2","2016_Mar_24_1518",NA
"Recordings/tata.wav","no","t","t","a","yes","a","tata","Training","alveolar","TrainingItems",1,33,133,5,NA,NA,NA,NA,NA,NA,NA,NA,NA,NA,133,FALSE,20,59.9398644091,"somali","American English","VSH_Exp2","2016_Mar_24_1518",NA
"Recordings/sasi.wav","no","s","s","a","no","i","sasi","Training","alveolar","TrainingItems",1,34,134,99,NA,NA,NA,NA,NA,NA,NA,NA,NA,NA,133,FALSE,20,59.9398644091,"somali","American English","VSH_Exp2","2016_Mar_24_1518",NA
"Recordings/tupu.wav","no","t","p","u","yes","u","tupu","Training","alveolar","TrainingItems",1,35,135,82,NA,NA,NA,NA,NA,NA,NA,NA,NA,NA,133,FALSE,20,59.9398644091,"somali","American English","VSH_Exp2","2016_Mar_24_1518",NA
"Recordings/badi.wav","yes","b","d","a","yes","i","badi","Training","bilabial","TrainingItems",1,36,136,61,NA,NA,NA,NA,NA,NA,NA,NA,NA,NA,133,FALSE,20,59.9398644091,"somali","American English","VSH_Exp2","2016_Mar_24_1518",NA
"Recordings/didu.wav","yes","d","d","i","yes","u","didu","Training","alveolar","TrainingItems",1,37,137,50,NA,NA,NA,NA,NA,NA,NA,NA,NA,NA,133,FALSE,20,59.9398644091,"somali","American English","VSH_Exp2","2016_Mar_24_1518",NA
"Recordings/pupa.wav","no","p","p","u","yes","a","pupa","Training","bilabial","TrainingItems",1,38,138,23,NA,NA,NA,NA,NA,NA,NA,NA,NA,NA,133,FALSE,20,59.9398644091,"somali","American English","VSH_Exp2","2016_Mar_24_1518",NA
"Recordings/pita.wav","no","p","t","i","yes","a","pita","Training","bilabial","TrainingItems",1,39,139,97,NA,NA,NA,NA,NA,NA,NA,NA,NA,NA,133,FALSE,20,59.9398644091,"somali","American English","VSH_Exp2","2016_Mar_24_1518",NA
"Recordings/fafi.wav","no","f","f","a","no","i","fafi","Training","bilabial","TrainingItems",1,40,140,72,NA,NA,NA,NA,NA,NA,NA,NA,NA,NA,133,FALSE,20,59.9398644091,"somali","American English","VSH_Exp2","2016_Mar_24_1518",NA
"Recordings/sifa.wav","no","s","f","i","no","a","sifa","Training","alveolar","TrainingItems",1,41,141,33,NA,NA,NA,NA,NA,NA,NA,NA,NA,NA,133,FALSE,20,59.9398644091,"somali","American English","VSH_Exp2","2016_Mar_24_1518",NA
"Recordings/buda.wav","yes","b","d","u","yes","a","buda","Training","bilabial","TrainingItems",1,42,142,17,NA,NA,NA,NA,NA,NA,NA,NA,NA,NA,133,FALSE,20,59.9398644091,"somali","American English","VSH_Exp2","2016_Mar_24_1518",NA
"Recordings/diba.wav","yes","d","b","i","yes","a","diba","Training","alveolar","TrainingItems",1,43,143,45,NA,NA,NA,NA,NA,NA,NA,NA,NA,NA,133,FALSE,20,59.9398644091,"somali","American English","VSH_Exp2","2016_Mar_24_1518",NA
"Recordings/bubu.wav","yes","b","b","u","yes","u","bubu","Training","bilabial","TrainingItems",1,44,144,16,NA,NA,NA,NA,NA,NA,NA,NA,NA,NA,133,FALSE,20,59.9398644091,"somali","American English","VSH_Exp2","2016_Mar_24_1518",NA
"Recordings/dubi.wav","yes","d","b","u","yes","i","dubi","Training","alveolar","TrainingItems",1,45,145,70,NA,NA,NA,NA,NA,NA,NA,NA,NA,NA,133,FALSE,20,59.9398644091,"somali","American English","VSH_Exp2","2016_Mar_24_1518",NA
"Recordings/dudu.wav","yes","d","d","u","yes","u","dudu","Training","alveolar","TrainingItems",1,46,146,73,NA,NA,NA,NA,NA,NA,NA,NA,NA,NA,133,FALSE,20,59.9398644091,"somali","American English","VSH_Exp2","2016_Mar_24_1518",NA
"Recordings/bada.wav","yes","b","d","a","yes","a","bada","Training","bilabial","TrainingItems",1,47,147,54,NA,NA,NA,NA,NA,NA,NA,NA,NA,NA,133,FALSE,20,59.9398644091,"somali","American English","VSH_Exp2","2016_Mar_24_1518",NA
"Recordings/fisa.wav","no","f","s","i","no","a","fisa","Training","bilabial","TrainingItems",1,48,148,78,NA,NA,NA,NA,NA,NA,NA,NA,NA,NA,133,FALSE,20,59.9398644091,"somali","American English","VSH_Exp2","2016_Mar_24_1518",NA
"Recordings/puta.wav","no","p","t","u","yes","a","puta","Training","bilabial","TrainingItems",1,49,149,94,NA,NA,NA,NA,NA,NA,NA,NA,NA,NA,133,FALSE,20,59.9398644091,"somali","American English","VSH_Exp2","2016_Mar_24_1518",NA
"Recordings/zizi.wav","yes","z","z","i","no","i","zizi","Training","alveolar","TrainingItems",1,50,150,64,NA,NA,NA,NA,NA,NA,NA,NA,NA,NA,133,FALSE,20,59.9398644091,"somali","American English","VSH_Exp2","2016_Mar_24_1518",NA
"Recordings/safi.wav","no","s","f","a","no","i","safi","Training","alveolar","TrainingItems",1,51,151,22,NA,NA,NA,NA,NA,NA,NA,NA,NA,NA,133,FALSE,20,59.9398644091,"somali","American English","VSH_Exp2","2016_Mar_24_1518",NA
"Recordings/fisu.wav","no","f","s","i","no","u","fisu","Training","bilabial","TrainingItems",1,52,152,76,NA,NA,NA,NA,NA,NA,NA,NA,NA,NA,133,FALSE,20,59.9398644091,"somali","American English","VSH_Exp2","2016_Mar_24_1518",NA
"Recordings/tuta.wav","no","t","t","u","yes","a","tuta","Training","alveolar","TrainingItems",1,53,153,52,NA,NA,NA,NA,NA,NA,NA,NA,NA,NA,133,FALSE,20,59.9398644091,"somali","American English","VSH_Exp2","2016_Mar_24_1518",NA
"Recordings/fusu.wav","no","f","s","u","no","u","fusu","Training","bilabial","TrainingItems",1,54,154,96,NA,NA,NA,NA,NA,NA,NA,NA,NA,NA,133,FALSE,20,59.9398644091,"somali","American English","VSH_Exp2","2016_Mar_24_1518",NA
"Recordings/zuzi.wav","yes","z","z","u","no","i","zuzi","Training","alveolar","TrainingItems",1,55,155,10,NA,NA,NA,NA,NA,NA,NA,NA,NA,NA,133,FALSE,20,59.9398644091,"somali","American English","VSH_Exp2","2016_Mar_24_1518",NA
"Recordings/pipa.wav","no","p","p","i","yes","a","pipa","Training","bilabial","TrainingItems",1,56,156,34,NA,NA,NA,NA,NA,NA,NA,NA,NA,NA,133,FALSE,20,59.9398644091,"somali","American English","VSH_Exp2","2016_Mar_24_1518",NA
"Recordings/dada.wav","yes","d","d","a","yes","a","dada","Training","alveolar","TrainingItems",1,57,157,8,NA,NA,NA,NA,NA,NA,NA,NA,NA,NA,133,FALSE,20,59.9398644091,"somali","American English","VSH_Exp2","2016_Mar_24_1518",NA
"Recordings/duba.wav","yes","d","b","u","yes","a","duba","Training","alveolar","TrainingItems",1,58,158,77,NA,NA,NA,NA,NA,NA,NA,NA,NA,NA,133,FALSE,20,59.9398644091,"somali","American English","VSH_Exp2","2016_Mar_24_1518",NA
"Recordings/fufi.wav","no","f","f","u","no","i","fufi","Training","bilabial","TrainingItems",1,59,159,51,NA,NA,NA,NA,NA,NA,NA,NA,NA,NA,133,FALSE,20,59.9398644091,"somali","American English","VSH_Exp2","2016_Mar_24_1518",NA
"Recordings/zazu.wav","yes","z","z","a","no","u","zazu","Training","alveolar","TrainingItems",1,60,160,24,NA,NA,NA,NA,NA,NA,NA,NA,NA,NA,133,FALSE,20,59.9398644091,"somali","American English","VSH_Exp2","2016_Mar_24_1518",NA
"Recordings/fafu.wav","no","f","f","a","no","u","fafu","Training","bilabial","TrainingItems",1,61,161,59,NA,NA,NA,NA,NA,NA,NA,NA,NA,NA,133,FALSE,20,59.9398644091,"somali","American English","VSH_Exp2","2016_Mar_24_1518",NA
"Recordings/vivi.wav","yes","v","v","i","no","i","vivi","Training","bilabial","TrainingItems",1,62,162,87,NA,NA,NA,NA,NA,NA,NA,NA,NA,NA,133,FALSE,20,59.9398644091,"somali","American English","VSH_Exp2","2016_Mar_24_1518",NA
"Recordings/baba.wav","yes","b","b","a","yes","a","baba","Training","bilabial","TrainingItems",1,63,163,11,NA,NA,NA,NA,NA,NA,NA,NA,NA,NA,133,FALSE,20,59.9398644091,"somali","American English","VSH_Exp2","2016_Mar_24_1518",NA
"Recordings/babi.wav","yes","b","b","a","yes","i","babi","Training","bilabial","TrainingItems",1,64,164,14,NA,NA,NA,NA,NA,NA,NA,NA,NA,NA,133,FALSE,20,59.9398644091,"somali","American English","VSH_Exp2","2016_Mar_24_1518",NA
"Recordings/piti.wav","no","p","t","i","yes","i","piti","Training","bilabial","TrainingItems",1,65,165,98,NA,NA,NA,NA,NA,NA,NA,NA,NA,NA,133,FALSE,20,59.9398644091,"somali","American English","VSH_Exp2","2016_Mar_24_1518",NA
"Recordings/titi.wav","no","t","t","i","yes","i","titi","Training","alveolar","TrainingItems",1,66,166,37,NA,NA,NA,NA,NA,NA,NA,NA,NA,NA,133,FALSE,20,59.9398644091,"somali","American English","VSH_Exp2","2016_Mar_24_1518",NA
"Recordings/tupi.wav","no","t","p","u","yes","i","tupi","Training","alveolar","TrainingItems",1,67,167,21,NA,NA,NA,NA,NA,NA,NA,NA,NA,NA,133,FALSE,20,59.9398644091,"somali","American English","VSH_Exp2","2016_Mar_24_1518",NA
"Recordings/dabi.wav","yes","d","b","a","yes","i","dabi","Training","alveolar","TrainingItems",1,68,168,18,NA,NA,NA,NA,NA,NA,NA,NA,NA,NA,133,FALSE,20,59.9398644091,"somali","American English","VSH_Exp2","2016_Mar_24_1518",NA
"Recordings/sufu.wav","no","s","f","u","no","u","sufu","Training","alveolar","TrainingItems",1,69,169,62,NA,NA,NA,NA,NA,NA,NA,NA,NA,NA,133,FALSE,20,59.9398644091,"somali","American English","VSH_Exp2","2016_Mar_24_1518",NA
"Recordings/vavu.wav","yes","v","v","a","no","u","vavu","Training","bilabial","TrainingItems",1,70,170,81,NA,NA,NA,NA,NA,NA,NA,NA,NA,NA,133,FALSE,20,59.9398644091,"somali","American English","VSH_Exp2","2016_Mar_24_1518",NA
"Recordings/fisi.wav","no","f","s","i","no","i","fisi","Training","bilabial","TrainingItems",1,71,171,60,NA,NA,NA,NA,NA,NA,NA,NA,NA,NA,133,FALSE,20,59.9398644091,"somali","American English","VSH_Exp2","2016_Mar_24_1518",NA
"Recordings/vivu.wav","yes","v","v","i","no","u","vivu","Training","bilabial","TrainingItems",1,72,172,30,NA,NA,NA,NA,NA,NA,NA,NA,NA,NA,133,FALSE,20,59.9398644091,"somali","American English","VSH_Exp2","2016_Mar_24_1518",NA
"Recordings/vava.wav","yes","v","v","a","no","a","vava","Training","bilabial","TrainingItems",1,73,173,25,NA,NA,NA,NA,NA,NA,NA,NA,NA,NA,133,FALSE,20,59.9398644091,"somali","American English","VSH_Exp2","2016_Mar_24_1518",NA
"Recordings/fufu.wav","no","f","f","u","no","u","fufu","Training","bilabial","TrainingItems",1,74,174,91,NA,NA,NA,NA,NA,NA,NA,NA,NA,NA,133,FALSE,20,59.9398644091,"somali","American English","VSH_Exp2","2016_Mar_24_1518",NA
"Recordings/dadu.wav","yes","d","d","a","yes","u","dadu","Training","alveolar","TrainingItems",1,75,175,4,NA,NA,NA,NA,NA,NA,NA,NA,NA,NA,133,FALSE,20,59.9398644091,"somali","American English","VSH_Exp2","2016_Mar_24_1518",NA
"Recordings/susi.wav","no","s","s","u","no","i","susi","Training","alveolar","TrainingItems",1,76,176,38,NA,NA,NA,NA,NA,NA,NA,NA,NA,NA,133,FALSE,20,59.9398644091,"somali","American English","VSH_Exp2","2016_Mar_24_1518",NA
"Recordings/fasi.wav","no","f","s","a","no","i","fasi","Training","bilabial","TrainingItems",1,77,177,36,NA,NA,NA,NA,NA,NA,NA,NA,NA,NA,133,FALSE,20,59.9398644091,"somali","American English","VSH_Exp2","2016_Mar_24_1518",NA
"Recordings/dabu.wav","yes","d","b","a","yes","u","dabu","Training","alveolar","TrainingItems",1,78,178,63,NA,NA,NA,NA,NA,NA,NA,NA,NA,NA,133,FALSE,20,59.9398644091,"somali","American English","VSH_Exp2","2016_Mar_24_1518",NA
"Recordings/puti.wav","no","p","t","u","yes","i","puti","Training","bilabial","TrainingItems",1,79,179,26,NA,NA,NA,NA,NA,NA,NA,NA,NA,NA,133,FALSE,20,59.9398644091,"somali","American English","VSH_Exp2","2016_Mar_24_1518",NA
"Recordings/vuvi.wav","yes","v","v","u","no","i","vuvi","Training","bilabial","TrainingItems",1,80,180,80,NA,NA,NA,NA,NA,NA,NA,NA,NA,NA,133,FALSE,20,59.9398644091,"somali","American English","VSH_Exp2","2016_Mar_24_1518",NA
"Recordings/pupu.wav","no","p","p","u","yes","u","pupu","Training","bilabial","TrainingItems",1,81,181,7,NA,NA,NA,NA,NA,NA,NA,NA,NA,NA,133,FALSE,20,59.9398644091,"somali","American English","VSH_Exp2","2016_Mar_24_1518",NA
"Recordings/zuza.wav","yes","z","z","u","no","a","zuza","Training","alveolar","TrainingItems",1,82,182,69,NA,NA,NA,NA,NA,NA,NA,NA,NA,NA,133,FALSE,20,59.9398644091,"somali","American English","VSH_Exp2","2016_Mar_24_1518",NA
"Recordings/viva.wav","yes","v","v","i","no","a","viva","Training","bilabial","TrainingItems",1,83,183,41,NA,NA,NA,NA,NA,NA,NA,NA,NA,NA,133,FALSE,20,59.9398644091,"somali","American English","VSH_Exp2","2016_Mar_24_1518",NA
"Recordings/susu.wav","no","s","s","u","no","u","susu","Training","alveolar","TrainingItems",1,84,184,55,NA,NA,NA,NA,NA,NA,NA,NA,NA,NA,133,FALSE,20,59.9398644091,"somali","American English","VSH_Exp2","2016_Mar_24_1518",NA
"Recordings/budu.wav","yes","b","d","u","yes","u","budu","Training","bilabial","TrainingItems",1,85,185,15,NA,NA,NA,NA,NA,NA,NA,NA,NA,NA,133,FALSE,20,59.9398644091,"somali","American English","VSH_Exp2","2016_Mar_24_1518",NA
"Recordings/didi.wav","yes","d","d","i","yes","i","didi","Training","alveolar","TrainingItems",1,86,186,32,NA,NA,NA,NA,NA,NA,NA,NA,NA,NA,133,FALSE,20,59.9398644091,"somali","American English","VSH_Exp2","2016_Mar_24_1518",NA
"Recordings/dadi.wav","yes","d","d","a","yes","i","dadi","Training","alveolar","TrainingItems",1,87,187,95,NA,NA,NA,NA,NA,NA,NA,NA,NA,NA,133,FALSE,20,59.9398644091,"somali","American English","VSH_Exp2","2016_Mar_24_1518",NA
"Recordings/fasa.wav","no","f","s","a","no","a","fasa","Training","bilabial","TrainingItems",1,88,188,83,NA,NA,NA,NA,NA,NA,NA,NA,NA,NA,133,FALSE,20,59.9398644091,"somali","American English","VSH_Exp2","2016_Mar_24_1518",NA
"Recordings/fifa.wav","no","f","f","i","no","a","fifa","Training","bilabial","TrainingItems",1,89,189,85,NA,NA,NA,NA,NA,NA,NA,NA,NA,NA,133,FALSE,20,59.9398644091,"somali","American English","VSH_Exp2","2016_Mar_24_1518",NA
"Recordings/sifu.wav","no","s","f","i","no","u","sifu","Training","alveolar","TrainingItems",1,90,190,20,NA,NA,NA,NA,NA,NA,NA,NA,NA,NA,133,FALSE,20,59.9398644091,"somali","American English","VSH_Exp2","2016_Mar_24_1518",NA
"Recordings/vuvu.wav","yes","v","v","u","no","u","vuvu","Training","bilabial","TrainingItems",1,91,191,75,NA,NA,NA,NA,NA,NA,NA,NA,NA,NA,133,FALSE,20,59.9398644091,"somali","American English","VSH_Exp2","2016_Mar_24_1518",NA
"Recordings/pitu.wav","no","p","t","i","yes","u","pitu","Training","bilabial","TrainingItems",1,92,192,40,NA,NA,NA,NA,NA,NA,NA,NA,NA,NA,133,FALSE,20,59.9398644091,"somali","American English","VSH_Exp2","2016_Mar_24_1518",NA
"Recordings/fifu.wav","no","f","f","i","no","u","fifu","Training","bilabial","TrainingItems",1,93,193,56,NA,NA,NA,NA,NA,NA,NA,NA,NA,NA,133,FALSE,20,59.9398644091,"somali","American English","VSH_Exp2","2016_Mar_24_1518",NA
"Recordings/vavi.wav","yes","v","v","a","no","i","vavi","Training","bilabial","TrainingItems",1,94,194,67,NA,NA,NA,NA,NA,NA,NA,NA,NA,NA,133,FALSE,20,59.9398644091,"somali","American English","VSH_Exp2","2016_Mar_24_1518",NA
"Recordings/sisu.wav","no","s","s","i","no","u","sisu","Training","alveolar","TrainingItems",1,95,195,29,NA,NA,NA,NA,NA,NA,NA,NA,NA,NA,133,FALSE,20,59.9398644091,"somali","American English","VSH_Exp2","2016_Mar_24_1518",NA
"Recordings/putu.wav","no","p","t","u","yes","u","putu","Training","bilabial","TrainingItems",1,96,196,86,NA,NA,NA,NA,NA,NA,NA,NA,NA,NA,133,FALSE,20,59.9398644091,"somali","American English","VSH_Exp2","2016_Mar_24_1518",NA
"Recordings/dudi.wav","yes","d","d","u","yes","i","dudi","Training","alveolar","TrainingItems",1,97,197,89,NA,NA,NA,NA,NA,NA,NA,NA,NA,NA,133,FALSE,20,59.9398644091,"somali","American English","VSH_Exp2","2016_Mar_24_1518",NA
"Recordings/tipu.wav","no","t","p","i","yes","u","tipu","Training","alveolar","TrainingItems",1,98,198,57,NA,NA,NA,NA,NA,NA,NA,NA,NA,NA,133,FALSE,20,59.9398644091,"somali","American English","VSH_Exp2","2016_Mar_24_1518",NA
"Recordings/tati.wav","no","t","t","a","yes","i","tati","Training","alveolar","TrainingItems",1,99,199,43,NA,NA,NA,NA,NA,NA,NA,NA,NA,NA,133,FALSE,20,59.9398644091,"somali","American English","VSH_Exp2","2016_Mar_24_1518",NA
NA,NA,NA,NA,NA,NA,NA,NA,NA,NA,NA,NA,NA,NA,NA,NA,NA,NA,NA,NA,NA,"space",5.50692915916,NA,NA,133,FALSE,20,59.9398644091,"somali","American English","VSH_Exp2","2016_Mar_24_1518",NA
"Recordings/bivu.wav","yes","b","v","i","yes","u","bivu","Controls","bilabial","VoicingControls",NA,NA,NA,NA,0,0,0,43,NA,NA,NA,NA,"No",8.847,133,FALSE,20,59.9398644091,"somali","American English","VSH_Exp2","2016_Mar_24_1518",NA
"Recordings/bada.wav","yes","b","d","a","yes","a","bada","Test","bilabial","OldTestStimuli",NA,NA,NA,NA,0,1,1,7,NA,NA,NA,NA,"Yes",5.692,133,FALSE,20,59.9398644091,"somali","American English","VSH_Exp2","2016_Mar_24_1518",NA
"Recordings/vuzi.wav","yes","v","z","u","no","i","vuzi","Test","bilabial","NewConsTestStimuli",NA,NA,NA,NA,0,2,2,19,NA,NA,NA,NA,"Yes",3.606,133,FALSE,20,59.9398644091,"somali","American English","VSH_Exp2","2016_Mar_24_1518",NA
"Recordings/tati.wav","no","t","t","a","yes","i","tati","Test","alveolar","OldTestStimuli",NA,NA,NA,NA,0,3,3,6,NA,NA,NA,NA,"Yes",1.203,133,FALSE,20,59.9398644091,"somali","American English","VSH_Exp2","2016_Mar_24_1518",NA
"Recordings/bibu.wav","yes","b","b","i","yes","u","bibu","Test","bilabial","NewWordTestStimuli",NA,NA,NA,NA,0,4,4,22,NA,NA,NA,NA,"Yes",0.854,133,FALSE,20,59.9398644091,"somali","American English","VSH_Exp2","2016_Mar_24_1518",NA
"Recordings/pupa.wav","no","p","p","u","yes","a","pupa","Test","bilabial","OldTestStimuli",NA,NA,NA,NA,0,5,5,0,NA,NA,NA,NA,"Yes",0.904,133,FALSE,20,59.9398644091,"somali","American English","VSH_Exp2","2016_Mar_24_1518",NA
"Recordings/papi.wav","no","p","p","a","yes","i","papi","Test","bilabial","NewWordTestStimuli",NA,NA,NA,NA,0,6,6,26,NA,NA,NA,NA,"Yes",0.637,133,FALSE,20,59.9398644091,"somali","American English","VSH_Exp2","2016_Mar_24_1518",NA
"Recordings/vizi.wav","yes","v","z","i","no","i","vizi","Test","bilabial","NewConsTestStimuli",NA,NA,NA,NA,0,7,7,16,NA,NA,NA,NA,"No",4.607,133,FALSE,20,59.9398644091,"somali","American English","VSH_Exp2","2016_Mar_24_1518",NA
"Recordings/basu.wav","yes","b","s","a","yes","u","basu","Controls","bilabial","NoPatternControls",NA,NA,NA,NA,0,8,8,52,NA,NA,NA,NA,"Yes",2.27,133,FALSE,20,59.9398644091,"somali","American English","VSH_Exp2","2016_Mar_24_1518",NA
"Recordings/tupi.wav","no","t","p","u","yes","i","tupi","Test","alveolar","OldTestStimuli",NA,NA,NA,NA,0,9,9,4,NA,NA,NA,NA,"Yes",0.77,133,FALSE,20,59.9398644091,"somali","American English","VSH_Exp2","2016_Mar_24_1518",NA
"Recordings/vipi.wav","yes","v","p","i","no","i","vipi","Controls","bilabial","NoPatternControls",NA,NA,NA,NA,0,10,10,55,NA,NA,NA,NA,"Yes",1.169,133,FALSE,20,59.9398644091,"somali","American English","VSH_Exp2","2016_Mar_24_1518",NA
"Recordings/bipu.wav","yes","b","p","i","yes","u","bipu","Controls","bilabial","StopControls",NA,NA,NA,NA,0,11,11,33,NA,NA,NA,NA,"Yes",0.887,133,FALSE,20,59.9398644091,"somali","American English","VSH_Exp2","2016_Mar_24_1518",NA
"Recordings/dabi.wav","yes","d","b","a","yes","i","dabi","Test","alveolar","OldTestStimuli",NA,NA,NA,NA,0,12,12,8,NA,NA,NA,NA,"Yes",0.67,133,FALSE,20,59.9398644091,"somali","American English","VSH_Exp2","2016_Mar_24_1518",NA
"Recordings/duza.wav","yes","d","z","u","yes","a","duza","Controls","alveolar","VoicingControls",NA,NA,NA,NA,0,13,13,48,NA,NA,NA,NA,"No",3.355,133,FALSE,20,59.9398644091,"somali","American English","VSH_Exp2","2016_Mar_24_1518",NA
"Recordings/viza.wav","yes","v","z","i","no","a","viza","Test","bilabial","NewConsTestStimuli",NA,NA,NA,NA,0,14,14,10,NA,NA,NA,NA,"Yes",2.956,133,FALSE,20,59.9398644091,"somali","American English","VSH_Exp2","2016_Mar_24_1518",NA
"Recordings/vubi.wav","yes","v","b","u","no","i","vubi","Controls","bilabial","VoicingControls",NA,NA,NA,NA,0,15,15,49,NA,NA,NA,NA,"Yes",0.786,133,FALSE,20,59.9398644091,"somali","American English","VSH_Exp2","2016_Mar_24_1518",NA
"Recordings/tipa.wav","no","t","p","i","yes","a","tipa","Test","alveolar","OldTestStimuli",NA,NA,NA,NA,0,16,16,1,NA,NA,NA,NA,"Yes",0.753,133,FALSE,20,59.9398644091,"somali","American English","VSH_Exp2","2016_Mar_24_1518",NA
"Recordings/tabu.wav","no","t","b","a","yes","u","tabu","Controls","alveolar","StopControls",NA,NA,NA,NA,0,17,17,31,NA,NA,NA,NA,"Yes",1.521,133,FALSE,20,59.9398644091,"somali","American English","VSH_Exp2","2016_Mar_24_1518",NA
"Recordings/papa.wav","no","p","p","a","yes","a","papa","Test","bilabial","OldTestStimuli",NA,NA,NA,NA,0,18,18,2,NA,NA,NA,NA,"Yes",0.87,133,FALSE,20,59.9398644091,"somali","American English","VSH_Exp2","2016_Mar_24_1518",NA
"Recordings/vufu.wav","yes","v","f","u","no","u","vufu","Controls","bilabial","StopControls",NA,NA,NA,NA,0,19,19,35,NA,NA,NA,NA,"No",3.222,133,FALSE,20,59.9398644091,"somali","American English","VSH_Exp2","2016_Mar_24_1518",NA
"Recordings/biza.wav","yes","b","z","i","yes","a","biza","Controls","bilabial","VoicingControls",NA,NA,NA,NA,0,20,20,42,NA,NA,NA,NA,"Yes",3.39,133,FALSE,20,59.9398644091,"somali","American English","VSH_Exp2","2016_Mar_24_1518",NA
"Recordings/sata.wav","no","s","t","a","no","a","sata","Controls","alveolar","VoicingControls",NA,NA,NA,NA,0,21,21,47,NA,NA,NA,NA,"Yes",4.407,133,FALSE,20,59.9398644091,"somali","American English","VSH_Exp2","2016_Mar_24_1518",NA
"Recordings/daza.wav","yes","d","z","a","yes","a","daza","Controls","alveolar","VoicingControls",NA,NA,NA,NA,0,22,22,40,NA,NA,NA,NA,"No",1.554,133,FALSE,20,59.9398644091,"somali","American English","VSH_Exp2","2016_Mar_24_1518",NA
"Recordings/savu.wav","no","s","v","a","no","u","savu","Controls","alveolar","StopControls",NA,NA,NA,NA,0,23,23,37,NA,NA,NA,NA,"Yes",1.12,133,FALSE,20,59.9398644091,"somali","American English","VSH_Exp2","2016_Mar_24_1518",NA
"Recordings/puvi.wav","no","p","v","u","yes","i","puvi","Controls","bilabial","NoPatternControls",NA,NA,NA,NA,0,24,24,56,NA,NA,NA,NA,"Yes",0.736,133,FALSE,20,59.9398644091,"somali","American English","VSH_Exp2","2016_Mar_24_1518",NA
"Recordings/budi.wav","yes","b","d","u","yes","i","budi","Test","bilabial","NewWordTestStimuli",NA,NA,NA,NA,0,25,25,28,NA,NA,NA,NA,"Yes",1.254,133,FALSE,20,59.9398644091,"somali","American English","VSH_Exp2","2016_Mar_24_1518",NA
"Recordings/disa.wav","yes","d","s","i","yes","a","disa","Controls","alveolar","NoPatternControls",NA,NA,NA,NA,0,26,26,54,NA,NA,NA,NA,"Yes",0.687,133,FALSE,20,59.9398644091,"somali","American English","VSH_Exp2","2016_Mar_24_1518",NA
"Recordings/fisa.wav","no","f","s","i","no","a","fisa","Test","bilabial","OldTestStimuli",NA,NA,NA,NA,0,27,27,5,NA,NA,NA,NA,"Yes",0.77,133,FALSE,20,59.9398644091,"somali","American English","VSH_Exp2","2016_Mar_24_1518",NA
"Recordings/pati.wav","no","p","t","a","yes","i","pati","Test","bilabial","NewWordTestStimuli",NA,NA,NA,NA,0,28,28,27,NA,NA,NA,NA,"Yes",0.636,133,FALSE,20,59.9398644091,"somali","American English","VSH_Exp2","2016_Mar_24_1518",NA
"Recordings/vazi.wav","yes","v","z","a","no","i","vazi","Test","bilabial","NewConsTestStimuli",NA,NA,NA,NA,0,29,29,12,NA,NA,NA,NA,"Yes",0.587,133,FALSE,20,59.9398644091,"somali","American English","VSH_Exp2","2016_Mar_24_1518",NA
"Recordings/vizu.wav","yes","v","z","i","no","u","vizu","Test","bilabial","NewConsTestStimuli",NA,NA,NA,NA,0,30,30,17,NA,NA,NA,NA,"No",1.487,133,FALSE,20,59.9398644091,"somali","American English","VSH_Exp2","2016_Mar_24_1518",NA
"Recordings/tata.wav","no","t","t","a","yes","a","tata","Test","alveolar","OldTestStimuli",NA,NA,NA,NA,0,31,31,3,NA,NA,NA,NA,"Yes",0.752,133,FALSE,20,59.9398644091,"somali","American English","VSH_Exp2","2016_Mar_24_1518",NA
"Recordings/dasu.wav","yes","d","s","a","yes","u","dasu","Controls","alveolar","NoPatternControls",NA,NA,NA,NA,0,32,32,50,NA,NA,NA,NA,"Yes",0.42,133,FALSE,20,59.9398644091,"somali","American English","VSH_Exp2","2016_Mar_24_1518",NA
"Recordings/vaza.wav","yes","v","z","a","no","a","vaza","Test","bilabial","NewConsTestStimuli",NA,NA,NA,NA,0,33,33,18,NA,NA,NA,NA,"Yes",0.852,133,FALSE,20,59.9398644091,"somali","American English","VSH_Exp2","2016_Mar_24_1518",NA
"Recordings/tafa.wav","no","t","f","a","yes","a","tafa","Controls","alveolar","VoicingControls",NA,NA,NA,NA,0,34,34,41,NA,NA,NA,NA,"Yes",0.736,133,FALSE,20,59.9398644091,"somali","American English","VSH_Exp2","2016_Mar_24_1518",NA
"Recordings/bifi.wav","yes","b","f","i","yes","i","bifi","Controls","bilabial","NoPatternControls",NA,NA,NA,NA,0,35,35,53,NA,NA,NA,NA,"Yes",1.82,133,FALSE,20,59.9398644091,"somali","American English","VSH_Exp2","2016_Mar_24_1518",NA
"Recordings/duta.wav","yes","d","t","u","yes","a","duta","Controls","alveolar","StopControls",NA,NA,NA,NA,0,36,36,38,NA,NA,NA,NA,"No",1.303,133,FALSE,20,59.9398644091,"somali","American English","VSH_Exp2","2016_Mar_24_1518",NA
"Recordings/fufa.wav","no","f","f","u","no","a","fufa","Test","bilabial","NewWordTestStimuli",NA,NA,NA,NA,0,37,37,20,NA,NA,NA,NA,"Yes",3.305,133,FALSE,20,59.9398644091,"somali","American English","VSH_Exp2","2016_Mar_24_1518",NA
"Recordings/ziva.wav","yes","z","v","i","no","a","ziva","Test","alveolar","NewConsTestStimuli",NA,NA,NA,NA,0,38,38,11,NA,NA,NA,NA,"Yes",2.038,133,FALSE,20,59.9398644091,"somali","American English","VSH_Exp2","2016_Mar_24_1518",NA
"Recordings/susa.wav","no","s","s","u","no","a","susa","Test","alveolar","NewWordTestStimuli",NA,NA,NA,NA,0,39,39,29,NA,NA,NA,NA,"Yes",1.188,133,FALSE,20,59.9398644091,"somali","American English","VSH_Exp2","2016_Mar_24_1518",NA
"Recordings/sibu.wav","no","s","b","i","no","u","sibu","Controls","alveolar","NoPatternControls",NA,NA,NA,NA,0,40,40,57,NA,NA,NA,NA,"No",2.305,133,FALSE,20,59.9398644091,"somali","American English","VSH_Exp2","2016_Mar_24_1518",NA
"Recordings/tipi.wav","no","t","p","i","yes","i","tipi","Test","alveolar","NewWordTestStimuli",NA,NA,NA,NA,0,41,41,25,NA,NA,NA,NA,"Yes",1.637,133,FALSE,20,59.9398644091,"somali","American English","VSH_Exp2","2016_Mar_24_1518",NA
"Recordings/vazu.wav","yes","v","z","a","no","u","vazu","Test","bilabial","NewConsTestStimuli",NA,NA,NA,NA,0,42,42,13,NA,NA,NA,NA,"Yes",2.104,133,FALSE,20,59.9398644091,"somali","American English","VSH_Exp2","2016_Mar_24_1518",NA
"Recordings/dapu.wav","yes","d","p","a","yes","u","dapu","Controls","alveolar","StopControls",NA,NA,NA,NA,0,43,43,34,NA,NA,NA,NA,"No",4.607,133,FALSE,20,59.9398644091,"somali","American English","VSH_Exp2","2016_Mar_24_1518",NA
"Recordings/vubu.wav","yes","v","b","u","no","u","vubu","Controls","bilabial","VoicingControls",NA,NA,NA,NA,0,44,44,45,NA,NA,NA,NA,"Yes",3.724,133,FALSE,20,59.9398644091,"somali","American English","VSH_Exp2","2016_Mar_24_1518",NA
"Recordings/puda.wav","no","p","d","u","yes","a","puda","Controls","bilabial","StopControls",NA,NA,NA,NA,0,45,45,36,NA,NA,NA,NA,"Yes",5.174,133,FALSE,20,59.9398644091,"somali","American English","VSH_Exp2","2016_Mar_24_1518",NA
"Recordings/tapa.wav","no","t","p","a","yes","a","tapa","Test","alveolar","NewWordTestStimuli",NA,NA,NA,NA,0,46,46,23,NA,NA,NA,NA,"Yes",0.853,133,FALSE,20,59.9398644091,"somali","American English","VSH_Exp2","2016_Mar_24_1518",NA
"Recordings/fisu.wav","no","f","s","i","no","u","fisu","Test","bilabial","OldTestStimuli",NA,NA,NA,NA,0,47,47,9,NA,NA,NA,NA,"No",1.304,133,FALSE,20,59.9398644091,"somali","American English","VSH_Exp2","2016_Mar_24_1518",NA
"Recordings/vufi.wav","yes","v","f","u","no","i","vufi","Controls","bilabial","StopControls",NA,NA,NA,NA,0,48,48,39,NA,NA,NA,NA,"Yes",0.92,133,FALSE,20,59.9398644091,"somali","American English","VSH_Exp2","2016_Mar_24_1518",NA
"Recordings/sasa.wav","no","s","s","a","no","a","sasa","Test","alveolar","NewWordTestStimuli",NA,NA,NA,NA,0,49,49,21,NA,NA,NA,NA,"Yes",0.702,133,FALSE,20,59.9398644091,"somali","American English","VSH_Exp2","2016_Mar_24_1518",NA
"Recordings/vuzu.wav","yes","v","z","u","no","u","vuzu","Test","bilabial","NewConsTestStimuli",NA,NA,NA,NA,0,50,50,14,NA,NA,NA,NA,"Yes",0.734,133,FALSE,20,59.9398644091,"somali","American English","VSH_Exp2","2016_Mar_24_1518",NA
"Recordings/zavi.wav","yes","z","v","a","no","i","zavi","Test","alveolar","NewConsTestStimuli",NA,NA,NA,NA,0,51,51,15,NA,NA,NA,NA,"Yes",0.652,133,FALSE,20,59.9398644091,"somali","American English","VSH_Exp2","2016_Mar_24_1518",NA
"Recordings/pusa.wav","no","p","s","u","yes","a","pusa","Controls","bilabial","VoicingControls",NA,NA,NA,NA,0,52,52,46,NA,NA,NA,NA,"Yes",2.171,133,FALSE,20,59.9398644091,"somali","American English","VSH_Exp2","2016_Mar_24_1518",NA
"Recordings/davu.wav","yes","d","v","a","yes","u","davu","Controls","alveolar","VoicingControls",NA,NA,NA,NA,0,53,53,44,NA,NA,NA,NA,"Yes",1.003,133,FALSE,20,59.9398644091,"somali","American English","VSH_Exp2","2016_Mar_24_1518",NA
"Recordings/dufi.wav","yes","d","f","u","yes","i","dufi","Controls","alveolar","NoPatternControls",NA,NA,NA,NA,0,54,54,58,NA,NA,NA,NA,"No",1.255,133,FALSE,20,59.9398644091,"somali","American English","VSH_Exp2","2016_Mar_24_1518",NA
"Recordings/data.wav","yes","d","t","a","yes","a","data","Controls","alveolar","StopControls",NA,NA,NA,NA,0,55,55,30,NA,NA,NA,NA,"No",3.206,133,FALSE,20,59.9398644091,"somali","American English","VSH_Exp2","2016_Mar_24_1518",NA
"Recordings/bita.wav","yes","b","t","i","yes","a","bita","Controls","bilabial","StopControls",NA,NA,NA,NA,0,56,56,32,NA,NA,NA,NA,"Yes",1.136,133,FALSE,20,59.9398644091,"somali","American English","VSH_Exp2","2016_Mar_24_1518",NA
"Recordings/tuvu.wav","no","t","v","u","yes","u","tuvu","Controls","alveolar","NoPatternControls",NA,NA,NA,NA,0,57,57,51,NA,NA,NA,NA,"No",1.504,133,FALSE,20,59.9398644091,"somali","American English","VSH_Exp2","2016_Mar_24_1518",NA
"Recordings/vutu.wav","yes","v","t","u","no","u","vutu","Controls","bilabial","NoPatternControls",NA,NA,NA,NA,0,58,58,59,NA,NA,NA,NA,"Yes",1.018,133,FALSE,20,59.9398644091,"somali","American English","VSH_Exp2","2016_Mar_24_1518",NA
"Recordings/dibu.wav","yes","d","b","i","yes","u","dibu","Test","alveolar","NewWordTestStimuli",NA,NA,NA,NA,0,59,59,24,NA,NA,NA,NA,"Yes",1.821,133,FALSE,20,59.9398644091,"somali","American English","VSH_Exp2","2016_Mar_24_1518",NA
