"SOUND","VOICING","SEGMENT","SEGMENT3","SEGMENT2","STOP","SEGMENT4","STIMULUS","GENERAL_TYPE","PLACE","TYPE","trials.thisRepN","trials.thisTrialN","trials.thisN","trials.thisIndex","trials_2.thisRepN","trials_2.thisTrialN","trials_2.thisN","trials_2.thisIndex","SpaceBar.keys","SpaceBar.rt","key_resp_2.keys","key_resp_2.rt","rating.response","rating.rt","participant","Gender","Age","frameRate","OtherLanguages","NativeLanguage","expName","date","X34"
NA,NA,NA,NA,NA,NA,NA,NA,NA,NA,NA,NA,NA,NA,NA,NA,NA,NA,NA,"space",1.26860404015,NA,NA,NA,NA,134,FALSE,20,59.954172831,NA,"American English","VSH_Exp2","2016_Mar_24_1518",NA
"Recordings/zizi.wav","yes","z","z","i","no","i","zizi","Training","alveolar","TrainingItems",0,0,0,73,NA,NA,NA,NA,NA,NA,NA,NA,NA,NA,134,FALSE,20,59.954172831,NA,"American English","VSH_Exp2","2016_Mar_24_1518",NA
"Recordings/zuzi.wav","yes","z","z","u","no","i","zuzi","Training","alveolar","TrainingItems",0,1,1,21,NA,NA,NA,NA,NA,NA,NA,NA,NA,NA,134,FALSE,20,59.954172831,NA,"American English","VSH_Exp2","2016_Mar_24_1518",NA
"Recordings/tita.wav","no","t","t","i","yes","a","tita","Training","alveolar","TrainingItems",0,2,2,51,NA,NA,NA,NA,NA,NA,NA,NA,NA,NA,134,FALSE,20,59.954172831,NA,"American English","VSH_Exp2","2016_Mar_24_1518",NA
"Recordings/vuzi.wav","yes","v","z","u","no","i","vuzi","Training","bilabial","TrainingItems",0,3,3,59,NA,NA,NA,NA,NA,NA,NA,NA,NA,NA,134,FALSE,20,59.954172831,NA,"American English","VSH_Exp2","2016_Mar_24_1518",NA
"Recordings/bibi.wav","yes","b","b","i","yes","i","bibi","Training","bilabial","TrainingItems",0,4,4,35,NA,NA,NA,NA,NA,NA,NA,NA,NA,NA,134,FALSE,20,59.954172831,NA,"American English","VSH_Exp2","2016_Mar_24_1518",NA
"Recordings/zivi.wav","yes","z","v","i","no","i","zivi","Training","alveolar","TrainingItems",0,5,5,42,NA,NA,NA,NA,NA,NA,NA,NA,NA,NA,134,FALSE,20,59.954172831,NA,"American English","VSH_Exp2","2016_Mar_24_1518",NA
"Recordings/pipi.wav","no","p","p","i","yes","i","pipi","Training","bilabial","TrainingItems",0,6,6,4,NA,NA,NA,NA,NA,NA,NA,NA,NA,NA,134,FALSE,20,59.954172831,NA,"American English","VSH_Exp2","2016_Mar_24_1518",NA
"Recordings/zavu.wav","yes","z","v","a","no","u","zavu","Training","alveolar","TrainingItems",0,7,7,38,NA,NA,NA,NA,NA,NA,NA,NA,NA,NA,134,FALSE,20,59.954172831,NA,"American English","VSH_Exp2","2016_Mar_24_1518",NA
"Recordings/didi.wav","yes","d","d","i","yes","i","didi","Training","alveolar","TrainingItems",0,8,8,61,NA,NA,NA,NA,NA,NA,NA,NA,NA,NA,134,FALSE,20,59.954172831,NA,"American English","VSH_Exp2","2016_Mar_24_1518",NA
"Recordings/fafu.wav","no","f","f","a","no","u","fafu","Training","bilabial","TrainingItems",0,9,9,78,NA,NA,NA,NA,NA,NA,NA,NA,NA,NA,134,FALSE,20,59.954172831,NA,"American English","VSH_Exp2","2016_Mar_24_1518",NA
"Recordings/zava.wav","yes","z","v","a","no","a","zava","Training","alveolar","TrainingItems",0,10,10,76,NA,NA,NA,NA,NA,NA,NA,NA,NA,NA,134,FALSE,20,59.954172831,NA,"American English","VSH_Exp2","2016_Mar_24_1518",NA
"Recordings/viza.wav","yes","v","z","i","no","a","viza","Training","bilabial","TrainingItems",0,11,11,64,NA,NA,NA,NA,NA,NA,NA,NA,NA,NA,134,FALSE,20,59.954172831,NA,"American English","VSH_Exp2","2016_Mar_24_1518",NA
"Recordings/tuta.wav","no","t","t","u","yes","a","tuta","Training","alveolar","TrainingItems",0,12,12,18,NA,NA,NA,NA,NA,NA,NA,NA,NA,NA,134,FALSE,20,59.954172831,NA,"American English","VSH_Exp2","2016_Mar_24_1518",NA
"Recordings/piti.wav","no","p","t","i","yes","i","piti","Training","bilabial","TrainingItems",0,13,13,84,NA,NA,NA,NA,NA,NA,NA,NA,NA,NA,134,FALSE,20,59.954172831,NA,"American English","VSH_Exp2","2016_Mar_24_1518",NA
"Recordings/fufi.wav","no","f","f","u","no","i","fufi","Training","bilabial","TrainingItems",0,14,14,80,NA,NA,NA,NA,NA,NA,NA,NA,NA,NA,134,FALSE,20,59.954172831,NA,"American English","VSH_Exp2","2016_Mar_24_1518",NA
"Recordings/biba.wav","yes","b","b","i","yes","a","biba","Training","bilabial","TrainingItems",0,15,15,88,NA,NA,NA,NA,NA,NA,NA,NA,NA,NA,134,FALSE,20,59.954172831,NA,"American English","VSH_Exp2","2016_Mar_24_1518",NA
"Recordings/dudu.wav","yes","d","d","u","yes","u","dudu","Training","alveolar","TrainingItems",0,16,16,12,NA,NA,NA,NA,NA,NA,NA,NA,NA,NA,134,FALSE,20,59.954172831,NA,"American English","VSH_Exp2","2016_Mar_24_1518",NA
"Recordings/viva.wav","yes","v","v","i","no","a","viva","Training","bilabial","TrainingItems",0,17,17,83,NA,NA,NA,NA,NA,NA,NA,NA,NA,NA,134,FALSE,20,59.954172831,NA,"American English","VSH_Exp2","2016_Mar_24_1518",NA
"Recordings/zuza.wav","yes","z","z","u","no","a","zuza","Training","alveolar","TrainingItems",0,18,18,82,NA,NA,NA,NA,NA,NA,NA,NA,NA,NA,134,FALSE,20,59.954172831,NA,"American English","VSH_Exp2","2016_Mar_24_1518",NA
"Recordings/putu.wav","no","p","t","u","yes","u","putu","Training","bilabial","TrainingItems",0,19,19,68,NA,NA,NA,NA,NA,NA,NA,NA,NA,NA,134,FALSE,20,59.954172831,NA,"American English","VSH_Exp2","2016_Mar_24_1518",NA
"Recordings/vaza.wav","yes","v","z","a","no","a","vaza","Training","bilabial","TrainingItems",0,20,20,57,NA,NA,NA,NA,NA,NA,NA,NA,NA,NA,134,FALSE,20,59.954172831,NA,"American English","VSH_Exp2","2016_Mar_24_1518",NA
"Recordings/pata.wav","no","p","t","a","yes","a","pata","Training","bilabial","TrainingItems",0,21,21,39,NA,NA,NA,NA,NA,NA,NA,NA,NA,NA,134,FALSE,20,59.954172831,NA,"American English","VSH_Exp2","2016_Mar_24_1518",NA
"Recordings/fafa.wav","no","f","f","a","no","a","fafa","Training","bilabial","TrainingItems",0,22,22,48,NA,NA,NA,NA,NA,NA,NA,NA,NA,NA,134,FALSE,20,59.954172831,NA,"American English","VSH_Exp2","2016_Mar_24_1518",NA
"Recordings/titu.wav","no","t","t","i","yes","u","titu","Training","alveolar","TrainingItems",0,23,23,97,NA,NA,NA,NA,NA,NA,NA,NA,NA,NA,134,FALSE,20,59.954172831,NA,"American English","VSH_Exp2","2016_Mar_24_1518",NA
"Recordings/dudi.wav","yes","d","d","u","yes","i","dudi","Training","alveolar","TrainingItems",0,24,24,34,NA,NA,NA,NA,NA,NA,NA,NA,NA,NA,134,FALSE,20,59.954172831,NA,"American English","VSH_Exp2","2016_Mar_24_1518",NA
"Recordings/duda.wav","yes","d","d","u","yes","a","duda","Training","alveolar","TrainingItems",0,25,25,36,NA,NA,NA,NA,NA,NA,NA,NA,NA,NA,134,FALSE,20,59.954172831,NA,"American English","VSH_Exp2","2016_Mar_24_1518",NA
"Recordings/vuvi.wav","yes","v","v","u","no","i","vuvi","Training","bilabial","TrainingItems",0,26,26,17,NA,NA,NA,NA,NA,NA,NA,NA,NA,NA,134,FALSE,20,59.954172831,NA,"American English","VSH_Exp2","2016_Mar_24_1518",NA
"Recordings/vizi.wav","yes","v","z","i","no","i","vizi","Training","bilabial","TrainingItems",0,27,27,2,NA,NA,NA,NA,NA,NA,NA,NA,NA,NA,134,FALSE,20,59.954172831,NA,"American English","VSH_Exp2","2016_Mar_24_1518",NA
"Recordings/duba.wav","yes","d","b","u","yes","a","duba","Training","alveolar","TrainingItems",0,28,28,91,NA,NA,NA,NA,NA,NA,NA,NA,NA,NA,134,FALSE,20,59.954172831,NA,"American English","VSH_Exp2","2016_Mar_24_1518",NA
"Recordings/sisi.wav","no","s","s","i","no","i","sisi","Training","alveolar","TrainingItems",0,29,29,47,NA,NA,NA,NA,NA,NA,NA,NA,NA,NA,134,FALSE,20,59.954172831,NA,"American English","VSH_Exp2","2016_Mar_24_1518",NA
"Recordings/babu.wav","yes","b","b","a","yes","u","babu","Training","bilabial","TrainingItems",0,30,30,86,NA,NA,NA,NA,NA,NA,NA,NA,NA,NA,134,FALSE,20,59.954172831,NA,"American English","VSH_Exp2","2016_Mar_24_1518",NA
"Recordings/tati.wav","no","t","t","a","yes","i","tati","Training","alveolar","TrainingItems",0,31,31,16,NA,NA,NA,NA,NA,NA,NA,NA,NA,NA,134,FALSE,20,59.954172831,NA,"American English","VSH_Exp2","2016_Mar_24_1518",NA
"Recordings/pita.wav","no","p","t","i","yes","a","pita","Training","bilabial","TrainingItems",0,32,32,3,NA,NA,NA,NA,NA,NA,NA,NA,NA,NA,134,FALSE,20,59.954172831,NA,"American English","VSH_Exp2","2016_Mar_24_1518",NA
"Recordings/buda.wav","yes","b","d","u","yes","a","buda","Training","bilabial","TrainingItems",0,33,33,89,NA,NA,NA,NA,NA,NA,NA,NA,NA,NA,134,FALSE,20,59.954172831,NA,"American English","VSH_Exp2","2016_Mar_24_1518",NA
"Recordings/badi.wav","yes","b","d","a","yes","i","badi","Training","bilabial","TrainingItems",0,34,34,66,NA,NA,NA,NA,NA,NA,NA,NA,NA,NA,134,FALSE,20,59.954172831,NA,"American English","VSH_Exp2","2016_Mar_24_1518",NA
"Recordings/dabu.wav","yes","d","b","a","yes","u","dabu","Training","alveolar","TrainingItems",0,35,35,79,NA,NA,NA,NA,NA,NA,NA,NA,NA,NA,134,FALSE,20,59.954172831,NA,"American English","VSH_Exp2","2016_Mar_24_1518",NA
"Recordings/tapu.wav","no","t","p","a","yes","u","tapu","Training","alveolar","TrainingItems",0,36,36,23,NA,NA,NA,NA,NA,NA,NA,NA,NA,NA,134,FALSE,20,59.954172831,NA,"American English","VSH_Exp2","2016_Mar_24_1518",NA
"Recordings/sisu.wav","no","s","s","i","no","u","sisu","Training","alveolar","TrainingItems",0,37,37,14,NA,NA,NA,NA,NA,NA,NA,NA,NA,NA,134,FALSE,20,59.954172831,NA,"American English","VSH_Exp2","2016_Mar_24_1518",NA
"Recordings/vavi.wav","yes","v","v","a","no","i","vavi","Training","bilabial","TrainingItems",0,38,38,27,NA,NA,NA,NA,NA,NA,NA,NA,NA,NA,134,FALSE,20,59.954172831,NA,"American English","VSH_Exp2","2016_Mar_24_1518",NA
"Recordings/tutu.wav","no","t","t","u","yes","u","tutu","Training","alveolar","TrainingItems",0,39,39,31,NA,NA,NA,NA,NA,NA,NA,NA,NA,NA,134,FALSE,20,59.954172831,NA,"American English","VSH_Exp2","2016_Mar_24_1518",NA
"Recordings/susa.wav","no","s","s","u","no","a","susa","Training","alveolar","TrainingItems",0,40,40,62,NA,NA,NA,NA,NA,NA,NA,NA,NA,NA,134,FALSE,20,59.954172831,NA,"American English","VSH_Exp2","2016_Mar_24_1518",NA
"Recordings/zaza.wav","yes","z","z","a","no","a","zaza","Training","alveolar","TrainingItems",0,41,41,53,NA,NA,NA,NA,NA,NA,NA,NA,NA,NA,134,FALSE,20,59.954172831,NA,"American English","VSH_Exp2","2016_Mar_24_1518",NA
"Recordings/vazu.wav","yes","v","z","a","no","u","vazu","Training","bilabial","TrainingItems",0,42,42,22,NA,NA,NA,NA,NA,NA,NA,NA,NA,NA,134,FALSE,20,59.954172831,NA,"American English","VSH_Exp2","2016_Mar_24_1518",NA
"Recordings/zuva.wav","yes","z","v","u","no","a","zuva","Training","alveolar","TrainingItems",0,43,43,41,NA,NA,NA,NA,NA,NA,NA,NA,NA,NA,134,FALSE,20,59.954172831,NA,"American English","VSH_Exp2","2016_Mar_24_1518",NA
"Recordings/puta.wav","no","p","t","u","yes","a","puta","Training","bilabial","TrainingItems",0,44,44,74,NA,NA,NA,NA,NA,NA,NA,NA,NA,NA,134,FALSE,20,59.954172831,NA,"American English","VSH_Exp2","2016_Mar_24_1518",NA
"Recordings/dubi.wav","yes","d","b","u","yes","i","dubi","Training","alveolar","TrainingItems",0,45,45,13,NA,NA,NA,NA,NA,NA,NA,NA,NA,NA,134,FALSE,20,59.954172831,NA,"American English","VSH_Exp2","2016_Mar_24_1518",NA
"Recordings/vivu.wav","yes","v","v","i","no","u","vivu","Training","bilabial","TrainingItems",0,46,46,37,NA,NA,NA,NA,NA,NA,NA,NA,NA,NA,134,FALSE,20,59.954172831,NA,"American English","VSH_Exp2","2016_Mar_24_1518",NA
"Recordings/susu.wav","no","s","s","u","no","u","susu","Training","alveolar","TrainingItems",0,47,47,9,NA,NA,NA,NA,NA,NA,NA,NA,NA,NA,134,FALSE,20,59.954172831,NA,"American English","VSH_Exp2","2016_Mar_24_1518",NA
"Recordings/zavi.wav","yes","z","v","a","no","i","zavi","Training","alveolar","TrainingItems",0,48,48,70,NA,NA,NA,NA,NA,NA,NA,NA,NA,NA,134,FALSE,20,59.954172831,NA,"American English","VSH_Exp2","2016_Mar_24_1518",NA
"Recordings/zazi.wav","yes","z","z","a","no","i","zazi","Training","alveolar","TrainingItems",0,49,49,93,NA,NA,NA,NA,NA,NA,NA,NA,NA,NA,134,FALSE,20,59.954172831,NA,"American English","VSH_Exp2","2016_Mar_24_1518",NA
"Recordings/pitu.wav","no","p","t","i","yes","u","pitu","Training","bilabial","TrainingItems",0,50,50,32,NA,NA,NA,NA,NA,NA,NA,NA,NA,NA,134,FALSE,20,59.954172831,NA,"American English","VSH_Exp2","2016_Mar_24_1518",NA
"Recordings/tipu.wav","no","t","p","i","yes","u","tipu","Training","alveolar","TrainingItems",0,51,51,90,NA,NA,NA,NA,NA,NA,NA,NA,NA,NA,134,FALSE,20,59.954172831,NA,"American English","VSH_Exp2","2016_Mar_24_1518",NA
"Recordings/tupi.wav","no","t","p","u","yes","i","tupi","Training","alveolar","TrainingItems",0,52,52,92,NA,NA,NA,NA,NA,NA,NA,NA,NA,NA,134,FALSE,20,59.954172831,NA,"American English","VSH_Exp2","2016_Mar_24_1518",NA
"Recordings/vazi.wav","yes","v","z","a","no","i","vazi","Training","bilabial","TrainingItems",0,53,53,63,NA,NA,NA,NA,NA,NA,NA,NA,NA,NA,134,FALSE,20,59.954172831,NA,"American English","VSH_Exp2","2016_Mar_24_1518",NA
"Recordings/fufu.wav","no","f","f","u","no","u","fufu","Training","bilabial","TrainingItems",0,54,54,98,NA,NA,NA,NA,NA,NA,NA,NA,NA,NA,134,FALSE,20,59.954172831,NA,"American English","VSH_Exp2","2016_Mar_24_1518",NA
"Recordings/papu.wav","no","p","p","a","yes","u","papu","Training","bilabial","TrainingItems",0,55,55,5,NA,NA,NA,NA,NA,NA,NA,NA,NA,NA,134,FALSE,20,59.954172831,NA,"American English","VSH_Exp2","2016_Mar_24_1518",NA
"Recordings/fifi.wav","no","f","f","i","no","i","fifi","Training","bilabial","TrainingItems",0,56,56,58,NA,NA,NA,NA,NA,NA,NA,NA,NA,NA,134,FALSE,20,59.954172831,NA,"American English","VSH_Exp2","2016_Mar_24_1518",NA
"Recordings/pipa.wav","no","p","p","i","yes","a","pipa","Training","bilabial","TrainingItems",0,57,57,20,NA,NA,NA,NA,NA,NA,NA,NA,NA,NA,134,FALSE,20,59.954172831,NA,"American English","VSH_Exp2","2016_Mar_24_1518",NA
"Recordings/tapa.wav","no","t","p","a","yes","a","tapa","Training","alveolar","TrainingItems",0,58,58,60,NA,NA,NA,NA,NA,NA,NA,NA,NA,NA,134,FALSE,20,59.954172831,NA,"American English","VSH_Exp2","2016_Mar_24_1518",NA
"Recordings/papa.wav","no","p","p","a","yes","a","papa","Training","bilabial","TrainingItems",0,59,59,50,NA,NA,NA,NA,NA,NA,NA,NA,NA,NA,134,FALSE,20,59.954172831,NA,"American English","VSH_Exp2","2016_Mar_24_1518",NA
"Recordings/vivi.wav","yes","v","v","i","no","i","vivi","Training","bilabial","TrainingItems",0,60,60,99,NA,NA,NA,NA,NA,NA,NA,NA,NA,NA,134,FALSE,20,59.954172831,NA,"American English","VSH_Exp2","2016_Mar_24_1518",NA
"Recordings/vuva.wav","yes","v","v","u","no","a","vuva","Training","bilabial","TrainingItems",0,61,61,28,NA,NA,NA,NA,NA,NA,NA,NA,NA,NA,134,FALSE,20,59.954172831,NA,"American English","VSH_Exp2","2016_Mar_24_1518",NA
"Recordings/tatu.wav","no","t","t","a","yes","u","tatu","Training","alveolar","TrainingItems",0,62,62,54,NA,NA,NA,NA,NA,NA,NA,NA,NA,NA,134,FALSE,20,59.954172831,NA,"American English","VSH_Exp2","2016_Mar_24_1518",NA
"Recordings/tipa.wav","no","t","p","i","yes","a","tipa","Training","alveolar","TrainingItems",0,63,63,30,NA,NA,NA,NA,NA,NA,NA,NA,NA,NA,134,FALSE,20,59.954172831,NA,"American English","VSH_Exp2","2016_Mar_24_1518",NA
"Recordings/sisa.wav","no","s","s","i","no","a","sisa","Training","alveolar","TrainingItems",0,64,64,7,NA,NA,NA,NA,NA,NA,NA,NA,NA,NA,134,FALSE,20,59.954172831,NA,"American English","VSH_Exp2","2016_Mar_24_1518",NA
"Recordings/zuzu.wav","yes","z","z","u","no","u","zuzu","Training","alveolar","TrainingItems",0,65,65,96,NA,NA,NA,NA,NA,NA,NA,NA,NA,NA,134,FALSE,20,59.954172831,NA,"American English","VSH_Exp2","2016_Mar_24_1518",NA
"Recordings/zizu.wav","yes","z","z","i","no","u","zizu","Training","alveolar","TrainingItems",0,66,66,56,NA,NA,NA,NA,NA,NA,NA,NA,NA,NA,134,FALSE,20,59.954172831,NA,"American English","VSH_Exp2","2016_Mar_24_1518",NA
"Recordings/fifu.wav","no","f","f","i","no","u","fifu","Training","bilabial","TrainingItems",0,67,67,24,NA,NA,NA,NA,NA,NA,NA,NA,NA,NA,134,FALSE,20,59.954172831,NA,"American English","VSH_Exp2","2016_Mar_24_1518",NA
"Recordings/vuzu.wav","yes","v","z","u","no","u","vuzu","Training","bilabial","TrainingItems",0,68,68,72,NA,NA,NA,NA,NA,NA,NA,NA,NA,NA,134,FALSE,20,59.954172831,NA,"American English","VSH_Exp2","2016_Mar_24_1518",NA
"Recordings/tupu.wav","no","t","p","u","yes","u","tupu","Training","alveolar","TrainingItems",0,69,69,43,NA,NA,NA,NA,NA,NA,NA,NA,NA,NA,134,FALSE,20,59.954172831,NA,"American English","VSH_Exp2","2016_Mar_24_1518",NA
"Recordings/daba.wav","yes","d","b","a","yes","a","daba","Training","alveolar","TrainingItems",0,70,70,65,NA,NA,NA,NA,NA,NA,NA,NA,NA,NA,134,FALSE,20,59.954172831,NA,"American English","VSH_Exp2","2016_Mar_24_1518",NA
"Recordings/bida.wav","yes","b","d","i","yes","a","bida","Training","bilabial","TrainingItems",0,71,71,46,NA,NA,NA,NA,NA,NA,NA,NA,NA,NA,134,FALSE,20,59.954172831,NA,"American English","VSH_Exp2","2016_Mar_24_1518",NA
"Recordings/dada.wav","yes","d","d","a","yes","a","dada","Training","alveolar","TrainingItems",0,72,72,81,NA,NA,NA,NA,NA,NA,NA,NA,NA,NA,134,FALSE,20,59.954172831,NA,"American English","VSH_Exp2","2016_Mar_24_1518",NA
"Recordings/titi.wav","no","t","t","i","yes","i","titi","Training","alveolar","TrainingItems",0,73,73,55,NA,NA,NA,NA,NA,NA,NA,NA,NA,NA,134,FALSE,20,59.954172831,NA,"American English","VSH_Exp2","2016_Mar_24_1518",NA
"Recordings/patu.wav","no","p","t","a","yes","u","patu","Training","bilabial","TrainingItems",0,74,74,11,NA,NA,NA,NA,NA,NA,NA,NA,NA,NA,134,FALSE,20,59.954172831,NA,"American English","VSH_Exp2","2016_Mar_24_1518",NA
"Recordings/bubu.wav","yes","b","b","u","yes","u","bubu","Training","bilabial","TrainingItems",0,75,75,44,NA,NA,NA,NA,NA,NA,NA,NA,NA,NA,134,FALSE,20,59.954172831,NA,"American English","VSH_Exp2","2016_Mar_24_1518",NA
"Recordings/dubu.wav","yes","d","b","u","yes","u","dubu","Training","alveolar","TrainingItems",0,76,76,33,NA,NA,NA,NA,NA,NA,NA,NA,NA,NA,134,FALSE,20,59.954172831,NA,"American English","VSH_Exp2","2016_Mar_24_1518",NA
"Recordings/puti.wav","no","p","t","u","yes","i","puti","Training","bilabial","TrainingItems",0,77,77,0,NA,NA,NA,NA,NA,NA,NA,NA,NA,NA,134,FALSE,20,59.954172831,NA,"American English","VSH_Exp2","2016_Mar_24_1518",NA
"Recordings/pati.wav","no","p","t","a","yes","i","pati","Training","bilabial","TrainingItems",0,78,78,6,NA,NA,NA,NA,NA,NA,NA,NA,NA,NA,134,FALSE,20,59.954172831,NA,"American English","VSH_Exp2","2016_Mar_24_1518",NA
"Recordings/ziva.wav","yes","z","v","i","no","a","ziva","Training","alveolar","TrainingItems",0,79,79,67,NA,NA,NA,NA,NA,NA,NA,NA,NA,NA,134,FALSE,20,59.954172831,NA,"American English","VSH_Exp2","2016_Mar_24_1518",NA
"Recordings/babi.wav","yes","b","b","a","yes","i","babi","Training","bilabial","TrainingItems",0,80,80,1,NA,NA,NA,NA,NA,NA,NA,NA,NA,NA,134,FALSE,20,59.954172831,NA,"American English","VSH_Exp2","2016_Mar_24_1518",NA
"Recordings/tuti.wav","no","t","t","u","yes","i","tuti","Training","alveolar","TrainingItems",0,81,81,10,NA,NA,NA,NA,NA,NA,NA,NA,NA,NA,134,FALSE,20,59.954172831,NA,"American English","VSH_Exp2","2016_Mar_24_1518",NA
"Recordings/bibu.wav","yes","b","b","i","yes","u","bibu","Training","bilabial","TrainingItems",0,82,82,71,NA,NA,NA,NA,NA,NA,NA,NA,NA,NA,134,FALSE,20,59.954172831,NA,"American English","VSH_Exp2","2016_Mar_24_1518",NA
"Recordings/papi.wav","no","p","p","a","yes","i","papi","Training","bilabial","TrainingItems",0,83,83,75,NA,NA,NA,NA,NA,NA,NA,NA,NA,NA,134,FALSE,20,59.954172831,NA,"American English","VSH_Exp2","2016_Mar_24_1518",NA
"Recordings/tipi.wav","no","t","p","i","yes","i","tipi","Training","alveolar","TrainingItems",0,84,84,69,NA,NA,NA,NA,NA,NA,NA,NA,NA,NA,134,FALSE,20,59.954172831,NA,"American English","VSH_Exp2","2016_Mar_24_1518",NA
"Recordings/fifa.wav","no","f","f","i","no","a","fifa","Training","bilabial","TrainingItems",0,85,85,49,NA,NA,NA,NA,NA,NA,NA,NA,NA,NA,134,FALSE,20,59.954172831,NA,"American English","VSH_Exp2","2016_Mar_24_1518",NA
"Recordings/vuza.wav","yes","v","z","u","no","a","vuza","Training","bilabial","TrainingItems",0,86,86,77,NA,NA,NA,NA,NA,NA,NA,NA,NA,NA,134,FALSE,20,59.954172831,NA,"American English","VSH_Exp2","2016_Mar_24_1518",NA
"Recordings/dadu.wav","yes","d","d","a","yes","u","dadu","Training","alveolar","TrainingItems",0,87,87,95,NA,NA,NA,NA,NA,NA,NA,NA,NA,NA,134,FALSE,20,59.954172831,NA,"American English","VSH_Exp2","2016_Mar_24_1518",NA
"Recordings/dida.wav","yes","d","d","i","yes","a","dida","Training","alveolar","TrainingItems",0,88,88,25,NA,NA,NA,NA,NA,NA,NA,NA,NA,NA,134,FALSE,20,59.954172831,NA,"American English","VSH_Exp2","2016_Mar_24_1518",NA
"Recordings/pipu.wav","no","p","p","i","yes","u","pipu","Training","bilabial","TrainingItems",0,89,89,26,NA,NA,NA,NA,NA,NA,NA,NA,NA,NA,134,FALSE,20,59.954172831,NA,"American English","VSH_Exp2","2016_Mar_24_1518",NA
"Recordings/fafi.wav","no","f","f","a","no","i","fafi","Training","bilabial","TrainingItems",0,90,90,29,NA,NA,NA,NA,NA,NA,NA,NA,NA,NA,134,FALSE,20,59.954172831,NA,"American English","VSH_Exp2","2016_Mar_24_1518",NA
"Recordings/pupi.wav","no","p","p","u","yes","i","pupi","Training","bilabial","TrainingItems",0,91,91,8,NA,NA,NA,NA,NA,NA,NA,NA,NA,NA,134,FALSE,20,59.954172831,NA,"American English","VSH_Exp2","2016_Mar_24_1518",NA
"Recordings/dibu.wav","yes","d","b","i","yes","u","dibu","Training","alveolar","TrainingItems",0,92,92,52,NA,NA,NA,NA,NA,NA,NA,NA,NA,NA,134,FALSE,20,59.954172831,NA,"American English","VSH_Exp2","2016_Mar_24_1518",NA
"Recordings/sasi.wav","no","s","s","a","no","i","sasi","Training","alveolar","TrainingItems",0,93,93,40,NA,NA,NA,NA,NA,NA,NA,NA,NA,NA,134,FALSE,20,59.954172831,NA,"American English","VSH_Exp2","2016_Mar_24_1518",NA
"Recordings/budi.wav","yes","b","d","u","yes","i","budi","Training","bilabial","TrainingItems",0,94,94,19,NA,NA,NA,NA,NA,NA,NA,NA,NA,NA,134,FALSE,20,59.954172831,NA,"American English","VSH_Exp2","2016_Mar_24_1518",NA
"Recordings/susi.wav","no","s","s","u","no","i","susi","Training","alveolar","TrainingItems",0,95,95,45,NA,NA,NA,NA,NA,NA,NA,NA,NA,NA,134,FALSE,20,59.954172831,NA,"American English","VSH_Exp2","2016_Mar_24_1518",NA
"Recordings/vava.wav","yes","v","v","a","no","a","vava","Training","bilabial","TrainingItems",0,96,96,85,NA,NA,NA,NA,NA,NA,NA,NA,NA,NA,134,FALSE,20,59.954172831,NA,"American English","VSH_Exp2","2016_Mar_24_1518",NA
"Recordings/zuvu.wav","yes","z","v","u","no","u","zuvu","Training","alveolar","TrainingItems",0,97,97,94,NA,NA,NA,NA,NA,NA,NA,NA,NA,NA,134,FALSE,20,59.954172831,NA,"American English","VSH_Exp2","2016_Mar_24_1518",NA
"Recordings/pupu.wav","no","p","p","u","yes","u","pupu","Training","bilabial","TrainingItems",0,98,98,15,NA,NA,NA,NA,NA,NA,NA,NA,NA,NA,134,FALSE,20,59.954172831,NA,"American English","VSH_Exp2","2016_Mar_24_1518",NA
"Recordings/fufa.wav","no","f","f","u","no","a","fufa","Training","bilabial","TrainingItems",0,99,99,87,NA,NA,NA,NA,NA,NA,NA,NA,NA,NA,134,FALSE,20,59.954172831,NA,"American English","VSH_Exp2","2016_Mar_24_1518",NA
"Recordings/tita.wav","no","t","t","i","yes","a","tita","Training","alveolar","TrainingItems",1,0,100,51,NA,NA,NA,NA,NA,NA,NA,NA,NA,NA,134,FALSE,20,59.954172831,NA,"American English","VSH_Exp2","2016_Mar_24_1518",NA
"Recordings/bibi.wav","yes","b","b","i","yes","i","bibi","Training","bilabial","TrainingItems",1,1,101,35,NA,NA,NA,NA,NA,NA,NA,NA,NA,NA,134,FALSE,20,59.954172831,NA,"American English","VSH_Exp2","2016_Mar_24_1518",NA
"Recordings/zavu.wav","yes","z","v","a","no","u","zavu","Training","alveolar","TrainingItems",1,2,102,38,NA,NA,NA,NA,NA,NA,NA,NA,NA,NA,134,FALSE,20,59.954172831,NA,"American English","VSH_Exp2","2016_Mar_24_1518",NA
"Recordings/papa.wav","no","p","p","a","yes","a","papa","Training","bilabial","TrainingItems",1,3,103,50,NA,NA,NA,NA,NA,NA,NA,NA,NA,NA,134,FALSE,20,59.954172831,NA,"American English","VSH_Exp2","2016_Mar_24_1518",NA
"Recordings/pipa.wav","no","p","p","i","yes","a","pipa","Training","bilabial","TrainingItems",1,4,104,20,NA,NA,NA,NA,NA,NA,NA,NA,NA,NA,134,FALSE,20,59.954172831,NA,"American English","VSH_Exp2","2016_Mar_24_1518",NA
"Recordings/vivi.wav","yes","v","v","i","no","i","vivi","Training","bilabial","TrainingItems",1,5,105,99,NA,NA,NA,NA,NA,NA,NA,NA,NA,NA,134,FALSE,20,59.954172831,NA,"American English","VSH_Exp2","2016_Mar_24_1518",NA
"Recordings/zaza.wav","yes","z","z","a","no","a","zaza","Training","alveolar","TrainingItems",1,6,106,53,NA,NA,NA,NA,NA,NA,NA,NA,NA,NA,134,FALSE,20,59.954172831,NA,"American English","VSH_Exp2","2016_Mar_24_1518",NA
"Recordings/vazu.wav","yes","v","z","a","no","u","vazu","Training","bilabial","TrainingItems",1,7,107,22,NA,NA,NA,NA,NA,NA,NA,NA,NA,NA,134,FALSE,20,59.954172831,NA,"American English","VSH_Exp2","2016_Mar_24_1518",NA
"Recordings/zuva.wav","yes","z","v","u","no","a","zuva","Training","alveolar","TrainingItems",1,8,108,41,NA,NA,NA,NA,NA,NA,NA,NA,NA,NA,134,FALSE,20,59.954172831,NA,"American English","VSH_Exp2","2016_Mar_24_1518",NA
"Recordings/piti.wav","no","p","t","i","yes","i","piti","Training","bilabial","TrainingItems",1,9,109,84,NA,NA,NA,NA,NA,NA,NA,NA,NA,NA,134,FALSE,20,59.954172831,NA,"American English","VSH_Exp2","2016_Mar_24_1518",NA
"Recordings/bibu.wav","yes","b","b","i","yes","u","bibu","Training","bilabial","TrainingItems",1,10,110,71,NA,NA,NA,NA,NA,NA,NA,NA,NA,NA,134,FALSE,20,59.954172831,NA,"American English","VSH_Exp2","2016_Mar_24_1518",NA
"Recordings/daba.wav","yes","d","b","a","yes","a","daba","Training","alveolar","TrainingItems",1,11,111,65,NA,NA,NA,NA,NA,NA,NA,NA,NA,NA,134,FALSE,20,59.954172831,NA,"American English","VSH_Exp2","2016_Mar_24_1518",NA
"Recordings/tati.wav","no","t","t","a","yes","i","tati","Training","alveolar","TrainingItems",1,12,112,16,NA,NA,NA,NA,NA,NA,NA,NA,NA,NA,134,FALSE,20,59.954172831,NA,"American English","VSH_Exp2","2016_Mar_24_1518",NA
"Recordings/titi.wav","no","t","t","i","yes","i","titi","Training","alveolar","TrainingItems",1,13,113,55,NA,NA,NA,NA,NA,NA,NA,NA,NA,NA,134,FALSE,20,59.954172831,NA,"American English","VSH_Exp2","2016_Mar_24_1518",NA
"Recordings/papu.wav","no","p","p","a","yes","u","papu","Training","bilabial","TrainingItems",1,14,114,5,NA,NA,NA,NA,NA,NA,NA,NA,NA,NA,134,FALSE,20,59.954172831,NA,"American English","VSH_Exp2","2016_Mar_24_1518",NA
"Recordings/zuza.wav","yes","z","z","u","no","a","zuza","Training","alveolar","TrainingItems",1,15,115,82,NA,NA,NA,NA,NA,NA,NA,NA,NA,NA,134,FALSE,20,59.954172831,NA,"American English","VSH_Exp2","2016_Mar_24_1518",NA
"Recordings/tuta.wav","no","t","t","u","yes","a","tuta","Training","alveolar","TrainingItems",1,16,116,18,NA,NA,NA,NA,NA,NA,NA,NA,NA,NA,134,FALSE,20,59.954172831,NA,"American English","VSH_Exp2","2016_Mar_24_1518",NA
"Recordings/zizu.wav","yes","z","z","i","no","u","zizu","Training","alveolar","TrainingItems",1,17,117,56,NA,NA,NA,NA,NA,NA,NA,NA,NA,NA,134,FALSE,20,59.954172831,NA,"American English","VSH_Exp2","2016_Mar_24_1518",NA
"Recordings/didi.wav","yes","d","d","i","yes","i","didi","Training","alveolar","TrainingItems",1,18,118,61,NA,NA,NA,NA,NA,NA,NA,NA,NA,NA,134,FALSE,20,59.954172831,NA,"American English","VSH_Exp2","2016_Mar_24_1518",NA
"Recordings/tipi.wav","no","t","p","i","yes","i","tipi","Training","alveolar","TrainingItems",1,19,119,69,NA,NA,NA,NA,NA,NA,NA,NA,NA,NA,134,FALSE,20,59.954172831,NA,"American English","VSH_Exp2","2016_Mar_24_1518",NA
"Recordings/susu.wav","no","s","s","u","no","u","susu","Training","alveolar","TrainingItems",1,20,120,9,NA,NA,NA,NA,NA,NA,NA,NA,NA,NA,134,FALSE,20,59.954172831,NA,"American English","VSH_Exp2","2016_Mar_24_1518",NA
"Recordings/puta.wav","no","p","t","u","yes","a","puta","Training","bilabial","TrainingItems",1,21,121,74,NA,NA,NA,NA,NA,NA,NA,NA,NA,NA,134,FALSE,20,59.954172831,NA,"American English","VSH_Exp2","2016_Mar_24_1518",NA
"Recordings/dada.wav","yes","d","d","a","yes","a","dada","Training","alveolar","TrainingItems",1,22,122,81,NA,NA,NA,NA,NA,NA,NA,NA,NA,NA,134,FALSE,20,59.954172831,NA,"American English","VSH_Exp2","2016_Mar_24_1518",NA
"Recordings/tuti.wav","no","t","t","u","yes","i","tuti","Training","alveolar","TrainingItems",1,23,123,10,NA,NA,NA,NA,NA,NA,NA,NA,NA,NA,134,FALSE,20,59.954172831,NA,"American English","VSH_Exp2","2016_Mar_24_1518",NA
"Recordings/putu.wav","no","p","t","u","yes","u","putu","Training","bilabial","TrainingItems",1,24,124,68,NA,NA,NA,NA,NA,NA,NA,NA,NA,NA,134,FALSE,20,59.954172831,NA,"American English","VSH_Exp2","2016_Mar_24_1518",NA
"Recordings/sasi.wav","no","s","s","a","no","i","sasi","Training","alveolar","TrainingItems",1,25,125,40,NA,NA,NA,NA,NA,NA,NA,NA,NA,NA,134,FALSE,20,59.954172831,NA,"American English","VSH_Exp2","2016_Mar_24_1518",NA
"Recordings/vuza.wav","yes","v","z","u","no","a","vuza","Training","bilabial","TrainingItems",1,26,126,77,NA,NA,NA,NA,NA,NA,NA,NA,NA,NA,134,FALSE,20,59.954172831,NA,"American English","VSH_Exp2","2016_Mar_24_1518",NA
"Recordings/tipa.wav","no","t","p","i","yes","a","tipa","Training","alveolar","TrainingItems",1,27,127,30,NA,NA,NA,NA,NA,NA,NA,NA,NA,NA,134,FALSE,20,59.954172831,NA,"American English","VSH_Exp2","2016_Mar_24_1518",NA
"Recordings/pupu.wav","no","p","p","u","yes","u","pupu","Training","bilabial","TrainingItems",1,28,128,15,NA,NA,NA,NA,NA,NA,NA,NA,NA,NA,134,FALSE,20,59.954172831,NA,"American English","VSH_Exp2","2016_Mar_24_1518",NA
"Recordings/tapu.wav","no","t","p","a","yes","u","tapu","Training","alveolar","TrainingItems",1,29,129,23,NA,NA,NA,NA,NA,NA,NA,NA,NA,NA,134,FALSE,20,59.954172831,NA,"American English","VSH_Exp2","2016_Mar_24_1518",NA
"Recordings/sisu.wav","no","s","s","i","no","u","sisu","Training","alveolar","TrainingItems",1,30,130,14,NA,NA,NA,NA,NA,NA,NA,NA,NA,NA,134,FALSE,20,59.954172831,NA,"American English","VSH_Exp2","2016_Mar_24_1518",NA
"Recordings/fufi.wav","no","f","f","u","no","i","fufi","Training","bilabial","TrainingItems",1,31,131,80,NA,NA,NA,NA,NA,NA,NA,NA,NA,NA,134,FALSE,20,59.954172831,NA,"American English","VSH_Exp2","2016_Mar_24_1518",NA
"Recordings/vuva.wav","yes","v","v","u","no","a","vuva","Training","bilabial","TrainingItems",1,32,132,28,NA,NA,NA,NA,NA,NA,NA,NA,NA,NA,134,FALSE,20,59.954172831,NA,"American English","VSH_Exp2","2016_Mar_24_1518",NA
"Recordings/dudi.wav","yes","d","d","u","yes","i","dudi","Training","alveolar","TrainingItems",1,33,133,34,NA,NA,NA,NA,NA,NA,NA,NA,NA,NA,134,FALSE,20,59.954172831,NA,"American English","VSH_Exp2","2016_Mar_24_1518",NA
"Recordings/vizi.wav","yes","v","z","i","no","i","vizi","Training","bilabial","TrainingItems",1,34,134,2,NA,NA,NA,NA,NA,NA,NA,NA,NA,NA,134,FALSE,20,59.954172831,NA,"American English","VSH_Exp2","2016_Mar_24_1518",NA
"Recordings/tipu.wav","no","t","p","i","yes","u","tipu","Training","alveolar","TrainingItems",1,35,135,90,NA,NA,NA,NA,NA,NA,NA,NA,NA,NA,134,FALSE,20,59.954172831,NA,"American English","VSH_Exp2","2016_Mar_24_1518",NA
"Recordings/zavi.wav","yes","z","v","a","no","i","zavi","Training","alveolar","TrainingItems",1,36,136,70,NA,NA,NA,NA,NA,NA,NA,NA,NA,NA,134,FALSE,20,59.954172831,NA,"American English","VSH_Exp2","2016_Mar_24_1518",NA
"Recordings/tupu.wav","no","t","p","u","yes","u","tupu","Training","alveolar","TrainingItems",1,37,137,43,NA,NA,NA,NA,NA,NA,NA,NA,NA,NA,134,FALSE,20,59.954172831,NA,"American English","VSH_Exp2","2016_Mar_24_1518",NA
"Recordings/pati.wav","no","p","t","a","yes","i","pati","Training","bilabial","TrainingItems",1,38,138,6,NA,NA,NA,NA,NA,NA,NA,NA,NA,NA,134,FALSE,20,59.954172831,NA,"American English","VSH_Exp2","2016_Mar_24_1518",NA
"Recordings/vazi.wav","yes","v","z","a","no","i","vazi","Training","bilabial","TrainingItems",1,39,139,63,NA,NA,NA,NA,NA,NA,NA,NA,NA,NA,134,FALSE,20,59.954172831,NA,"American English","VSH_Exp2","2016_Mar_24_1518",NA
"Recordings/tapa.wav","no","t","p","a","yes","a","tapa","Training","alveolar","TrainingItems",1,40,140,60,NA,NA,NA,NA,NA,NA,NA,NA,NA,NA,134,FALSE,20,59.954172831,NA,"American English","VSH_Exp2","2016_Mar_24_1518",NA
"Recordings/vuzi.wav","yes","v","z","u","no","i","vuzi","Training","bilabial","TrainingItems",1,41,141,59,NA,NA,NA,NA,NA,NA,NA,NA,NA,NA,134,FALSE,20,59.954172831,NA,"American English","VSH_Exp2","2016_Mar_24_1518",NA
"Recordings/zuvu.wav","yes","z","v","u","no","u","zuvu","Training","alveolar","TrainingItems",1,42,142,94,NA,NA,NA,NA,NA,NA,NA,NA,NA,NA,134,FALSE,20,59.954172831,NA,"American English","VSH_Exp2","2016_Mar_24_1518",NA
"Recordings/tupi.wav","no","t","p","u","yes","i","tupi","Training","alveolar","TrainingItems",1,43,143,92,NA,NA,NA,NA,NA,NA,NA,NA,NA,NA,134,FALSE,20,59.954172831,NA,"American English","VSH_Exp2","2016_Mar_24_1518",NA
"Recordings/vavi.wav","yes","v","v","a","no","i","vavi","Training","bilabial","TrainingItems",1,44,144,27,NA,NA,NA,NA,NA,NA,NA,NA,NA,NA,134,FALSE,20,59.954172831,NA,"American English","VSH_Exp2","2016_Mar_24_1518",NA
"Recordings/buda.wav","yes","b","d","u","yes","a","buda","Training","bilabial","TrainingItems",1,45,145,89,NA,NA,NA,NA,NA,NA,NA,NA,NA,NA,134,FALSE,20,59.954172831,NA,"American English","VSH_Exp2","2016_Mar_24_1518",NA
"Recordings/dadu.wav","yes","d","d","a","yes","u","dadu","Training","alveolar","TrainingItems",1,46,146,95,NA,NA,NA,NA,NA,NA,NA,NA,NA,NA,134,FALSE,20,59.954172831,NA,"American English","VSH_Exp2","2016_Mar_24_1518",NA
"Recordings/fafu.wav","no","f","f","a","no","u","fafu","Training","bilabial","TrainingItems",1,47,147,78,NA,NA,NA,NA,NA,NA,NA,NA,NA,NA,134,FALSE,20,59.954172831,NA,"American English","VSH_Exp2","2016_Mar_24_1518",NA
"Recordings/sisi.wav","no","s","s","i","no","i","sisi","Training","alveolar","TrainingItems",1,48,148,47,NA,NA,NA,NA,NA,NA,NA,NA,NA,NA,134,FALSE,20,59.954172831,NA,"American English","VSH_Exp2","2016_Mar_24_1518",NA
"Recordings/pata.wav","no","p","t","a","yes","a","pata","Training","bilabial","TrainingItems",1,49,149,39,NA,NA,NA,NA,NA,NA,NA,NA,NA,NA,134,FALSE,20,59.954172831,NA,"American English","VSH_Exp2","2016_Mar_24_1518",NA
"Recordings/susa.wav","no","s","s","u","no","a","susa","Training","alveolar","TrainingItems",1,50,150,62,NA,NA,NA,NA,NA,NA,NA,NA,NA,NA,134,FALSE,20,59.954172831,NA,"American English","VSH_Exp2","2016_Mar_24_1518",NA
"Recordings/dubu.wav","yes","d","b","u","yes","u","dubu","Training","alveolar","TrainingItems",1,51,151,33,NA,NA,NA,NA,NA,NA,NA,NA,NA,NA,134,FALSE,20,59.954172831,NA,"American English","VSH_Exp2","2016_Mar_24_1518",NA
"Recordings/viza.wav","yes","v","z","i","no","a","viza","Training","bilabial","TrainingItems",1,52,152,64,NA,NA,NA,NA,NA,NA,NA,NA,NA,NA,134,FALSE,20,59.954172831,NA,"American English","VSH_Exp2","2016_Mar_24_1518",NA
"Recordings/bida.wav","yes","b","d","i","yes","a","bida","Training","bilabial","TrainingItems",1,53,153,46,NA,NA,NA,NA,NA,NA,NA,NA,NA,NA,134,FALSE,20,59.954172831,NA,"American English","VSH_Exp2","2016_Mar_24_1518",NA
"Recordings/zuzi.wav","yes","z","z","u","no","i","zuzi","Training","alveolar","TrainingItems",1,54,154,21,NA,NA,NA,NA,NA,NA,NA,NA,NA,NA,134,FALSE,20,59.954172831,NA,"American English","VSH_Exp2","2016_Mar_24_1518",NA
"Recordings/duda.wav","yes","d","d","u","yes","a","duda","Training","alveolar","TrainingItems",1,55,155,36,NA,NA,NA,NA,NA,NA,NA,NA,NA,NA,134,FALSE,20,59.954172831,NA,"American English","VSH_Exp2","2016_Mar_24_1518",NA
"Recordings/susi.wav","no","s","s","u","no","i","susi","Training","alveolar","TrainingItems",1,56,156,45,NA,NA,NA,NA,NA,NA,NA,NA,NA,NA,134,FALSE,20,59.954172831,NA,"American English","VSH_Exp2","2016_Mar_24_1518",NA
"Recordings/pipu.wav","no","p","p","i","yes","u","pipu","Training","bilabial","TrainingItems",1,57,157,26,NA,NA,NA,NA,NA,NA,NA,NA,NA,NA,134,FALSE,20,59.954172831,NA,"American English","VSH_Exp2","2016_Mar_24_1518",NA
"Recordings/pita.wav","no","p","t","i","yes","a","pita","Training","bilabial","TrainingItems",1,58,158,3,NA,NA,NA,NA,NA,NA,NA,NA,NA,NA,134,FALSE,20,59.954172831,NA,"American English","VSH_Exp2","2016_Mar_24_1518",NA
"Recordings/bubu.wav","yes","b","b","u","yes","u","bubu","Training","bilabial","TrainingItems",1,59,159,44,NA,NA,NA,NA,NA,NA,NA,NA,NA,NA,134,FALSE,20,59.954172831,NA,"American English","VSH_Exp2","2016_Mar_24_1518",NA
"Recordings/patu.wav","no","p","t","a","yes","u","patu","Training","bilabial","TrainingItems",1,60,160,11,NA,NA,NA,NA,NA,NA,NA,NA,NA,NA,134,FALSE,20,59.954172831,NA,"American English","VSH_Exp2","2016_Mar_24_1518",NA
"Recordings/vaza.wav","yes","v","z","a","no","a","vaza","Training","bilabial","TrainingItems",1,61,161,57,NA,NA,NA,NA,NA,NA,NA,NA,NA,NA,134,FALSE,20,59.954172831,NA,"American English","VSH_Exp2","2016_Mar_24_1518",NA
"Recordings/vava.wav","yes","v","v","a","no","a","vava","Training","bilabial","TrainingItems",1,62,162,85,NA,NA,NA,NA,NA,NA,NA,NA,NA,NA,134,FALSE,20,59.954172831,NA,"American English","VSH_Exp2","2016_Mar_24_1518",NA
"Recordings/fafi.wav","no","f","f","a","no","i","fafi","Training","bilabial","TrainingItems",1,63,163,29,NA,NA,NA,NA,NA,NA,NA,NA,NA,NA,134,FALSE,20,59.954172831,NA,"American English","VSH_Exp2","2016_Mar_24_1518",NA
"Recordings/viva.wav","yes","v","v","i","no","a","viva","Training","bilabial","TrainingItems",1,64,164,83,NA,NA,NA,NA,NA,NA,NA,NA,NA,NA,134,FALSE,20,59.954172831,NA,"American English","VSH_Exp2","2016_Mar_24_1518",NA
"Recordings/pupi.wav","no","p","p","u","yes","i","pupi","Training","bilabial","TrainingItems",1,65,165,8,NA,NA,NA,NA,NA,NA,NA,NA,NA,NA,134,FALSE,20,59.954172831,NA,"American English","VSH_Exp2","2016_Mar_24_1518",NA
"Recordings/fafa.wav","no","f","f","a","no","a","fafa","Training","bilabial","TrainingItems",1,66,166,48,NA,NA,NA,NA,NA,NA,NA,NA,NA,NA,134,FALSE,20,59.954172831,NA,"American English","VSH_Exp2","2016_Mar_24_1518",NA
"Recordings/babu.wav","yes","b","b","a","yes","u","babu","Training","bilabial","TrainingItems",1,67,167,86,NA,NA,NA,NA,NA,NA,NA,NA,NA,NA,134,FALSE,20,59.954172831,NA,"American English","VSH_Exp2","2016_Mar_24_1518",NA
"Recordings/fufu.wav","no","f","f","u","no","u","fufu","Training","bilabial","TrainingItems",1,68,168,98,NA,NA,NA,NA,NA,NA,NA,NA,NA,NA,134,FALSE,20,59.954172831,NA,"American English","VSH_Exp2","2016_Mar_24_1518",NA
"Recordings/dabu.wav","yes","d","b","a","yes","u","dabu","Training","alveolar","TrainingItems",1,69,169,79,NA,NA,NA,NA,NA,NA,NA,NA,NA,NA,134,FALSE,20,59.954172831,NA,"American English","VSH_Exp2","2016_Mar_24_1518",NA
"Recordings/fifa.wav","no","f","f","i","no","a","fifa","Training","bilabial","TrainingItems",1,70,170,49,NA,NA,NA,NA,NA,NA,NA,NA,NA,NA,134,FALSE,20,59.954172831,NA,"American English","VSH_Exp2","2016_Mar_24_1518",NA
"Recordings/fifi.wav","no","f","f","i","no","i","fifi","Training","bilabial","TrainingItems",1,71,171,58,NA,NA,NA,NA,NA,NA,NA,NA,NA,NA,134,FALSE,20,59.954172831,NA,"American English","VSH_Exp2","2016_Mar_24_1518",NA
"Recordings/puti.wav","no","p","t","u","yes","i","puti","Training","bilabial","TrainingItems",1,72,172,0,NA,NA,NA,NA,NA,NA,NA,NA,NA,NA,134,FALSE,20,59.954172831,NA,"American English","VSH_Exp2","2016_Mar_24_1518",NA
"Recordings/babi.wav","yes","b","b","a","yes","i","babi","Training","bilabial","TrainingItems",1,73,173,1,NA,NA,NA,NA,NA,NA,NA,NA,NA,NA,134,FALSE,20,59.954172831,NA,"American English","VSH_Exp2","2016_Mar_24_1518",NA
"Recordings/badi.wav","yes","b","d","a","yes","i","badi","Training","bilabial","TrainingItems",1,74,174,66,NA,NA,NA,NA,NA,NA,NA,NA,NA,NA,134,FALSE,20,59.954172831,NA,"American English","VSH_Exp2","2016_Mar_24_1518",NA
"Recordings/papi.wav","no","p","p","a","yes","i","papi","Training","bilabial","TrainingItems",1,75,175,75,NA,NA,NA,NA,NA,NA,NA,NA,NA,NA,134,FALSE,20,59.954172831,NA,"American English","VSH_Exp2","2016_Mar_24_1518",NA
"Recordings/biba.wav","yes","b","b","i","yes","a","biba","Training","bilabial","TrainingItems",1,76,176,88,NA,NA,NA,NA,NA,NA,NA,NA,NA,NA,134,FALSE,20,59.954172831,NA,"American English","VSH_Exp2","2016_Mar_24_1518",NA
"Recordings/zuzu.wav","yes","z","z","u","no","u","zuzu","Training","alveolar","TrainingItems",1,77,177,96,NA,NA,NA,NA,NA,NA,NA,NA,NA,NA,134,FALSE,20,59.954172831,NA,"American English","VSH_Exp2","2016_Mar_24_1518",NA
"Recordings/dida.wav","yes","d","d","i","yes","a","dida","Training","alveolar","TrainingItems",1,78,178,25,NA,NA,NA,NA,NA,NA,NA,NA,NA,NA,134,FALSE,20,59.954172831,NA,"American English","VSH_Exp2","2016_Mar_24_1518",NA
"Recordings/ziva.wav","yes","z","v","i","no","a","ziva","Training","alveolar","TrainingItems",1,79,179,67,NA,NA,NA,NA,NA,NA,NA,NA,NA,NA,134,FALSE,20,59.954172831,NA,"American English","VSH_Exp2","2016_Mar_24_1518",NA
"Recordings/dibu.wav","yes","d","b","i","yes","u","dibu","Training","alveolar","TrainingItems",1,80,180,52,NA,NA,NA,NA,NA,NA,NA,NA,NA,NA,134,FALSE,20,59.954172831,NA,"American English","VSH_Exp2","2016_Mar_24_1518",NA
"Recordings/titu.wav","no","t","t","i","yes","u","titu","Training","alveolar","TrainingItems",1,81,181,97,NA,NA,NA,NA,NA,NA,NA,NA,NA,NA,134,FALSE,20,59.954172831,NA,"American English","VSH_Exp2","2016_Mar_24_1518",NA
"Recordings/fufa.wav","no","f","f","u","no","a","fufa","Training","bilabial","TrainingItems",1,82,182,87,NA,NA,NA,NA,NA,NA,NA,NA,NA,NA,134,FALSE,20,59.954172831,NA,"American English","VSH_Exp2","2016_Mar_24_1518",NA
"Recordings/zava.wav","yes","z","v","a","no","a","zava","Training","alveolar","TrainingItems",1,83,183,76,NA,NA,NA,NA,NA,NA,NA,NA,NA,NA,134,FALSE,20,59.954172831,NA,"American English","VSH_Exp2","2016_Mar_24_1518",NA
"Recordings/dudu.wav","yes","d","d","u","yes","u","dudu","Training","alveolar","TrainingItems",1,84,184,12,NA,NA,NA,NA,NA,NA,NA,NA,NA,NA,134,FALSE,20,59.954172831,NA,"American English","VSH_Exp2","2016_Mar_24_1518",NA
"Recordings/budi.wav","yes","b","d","u","yes","i","budi","Training","bilabial","TrainingItems",1,85,185,19,NA,NA,NA,NA,NA,NA,NA,NA,NA,NA,134,FALSE,20,59.954172831,NA,"American English","VSH_Exp2","2016_Mar_24_1518",NA
"Recordings/sisa.wav","no","s","s","i","no","a","sisa","Training","alveolar","TrainingItems",1,86,186,7,NA,NA,NA,NA,NA,NA,NA,NA,NA,NA,134,FALSE,20,59.954172831,NA,"American English","VSH_Exp2","2016_Mar_24_1518",NA
"Recordings/zazi.wav","yes","z","z","a","no","i","zazi","Training","alveolar","TrainingItems",1,87,187,93,NA,NA,NA,NA,NA,NA,NA,NA,NA,NA,134,FALSE,20,59.954172831,NA,"American English","VSH_Exp2","2016_Mar_24_1518",NA
"Recordings/dubi.wav","yes","d","b","u","yes","i","dubi","Training","alveolar","TrainingItems",1,88,188,13,NA,NA,NA,NA,NA,NA,NA,NA,NA,NA,134,FALSE,20,59.954172831,NA,"American English","VSH_Exp2","2016_Mar_24_1518",NA
"Recordings/vuzu.wav","yes","v","z","u","no","u","vuzu","Training","bilabial","TrainingItems",1,89,189,72,NA,NA,NA,NA,NA,NA,NA,NA,NA,NA,134,FALSE,20,59.954172831,NA,"American English","VSH_Exp2","2016_Mar_24_1518",NA
"Recordings/fifu.wav","no","f","f","i","no","u","fifu","Training","bilabial","TrainingItems",1,90,190,24,NA,NA,NA,NA,NA,NA,NA,NA,NA,NA,134,FALSE,20,59.954172831,NA,"American English","VSH_Exp2","2016_Mar_24_1518",NA
"Recordings/zivi.wav","yes","z","v","i","no","i","zivi","Training","alveolar","TrainingItems",1,91,191,42,NA,NA,NA,NA,NA,NA,NA,NA,NA,NA,134,FALSE,20,59.954172831,NA,"American English","VSH_Exp2","2016_Mar_24_1518",NA
"Recordings/duba.wav","yes","d","b","u","yes","a","duba","Training","alveolar","TrainingItems",1,92,192,91,NA,NA,NA,NA,NA,NA,NA,NA,NA,NA,134,FALSE,20,59.954172831,NA,"American English","VSH_Exp2","2016_Mar_24_1518",NA
"Recordings/vivu.wav","yes","v","v","i","no","u","vivu","Training","bilabial","TrainingItems",1,93,193,37,NA,NA,NA,NA,NA,NA,NA,NA,NA,NA,134,FALSE,20,59.954172831,NA,"American English","VSH_Exp2","2016_Mar_24_1518",NA
"Recordings/pitu.wav","no","p","t","i","yes","u","pitu","Training","bilabial","TrainingItems",1,94,194,32,NA,NA,NA,NA,NA,NA,NA,NA,NA,NA,134,FALSE,20,59.954172831,NA,"American English","VSH_Exp2","2016_Mar_24_1518",NA
"Recordings/tatu.wav","no","t","t","a","yes","u","tatu","Training","alveolar","TrainingItems",1,95,195,54,NA,NA,NA,NA,NA,NA,NA,NA,NA,NA,134,FALSE,20,59.954172831,NA,"American English","VSH_Exp2","2016_Mar_24_1518",NA
"Recordings/pipi.wav","no","p","p","i","yes","i","pipi","Training","bilabial","TrainingItems",1,96,196,4,NA,NA,NA,NA,NA,NA,NA,NA,NA,NA,134,FALSE,20,59.954172831,NA,"American English","VSH_Exp2","2016_Mar_24_1518",NA
"Recordings/zizi.wav","yes","z","z","i","no","i","zizi","Training","alveolar","TrainingItems",1,97,197,73,NA,NA,NA,NA,NA,NA,NA,NA,NA,NA,134,FALSE,20,59.954172831,NA,"American English","VSH_Exp2","2016_Mar_24_1518",NA
"Recordings/vuvi.wav","yes","v","v","u","no","i","vuvi","Training","bilabial","TrainingItems",1,98,198,17,NA,NA,NA,NA,NA,NA,NA,NA,NA,NA,134,FALSE,20,59.954172831,NA,"American English","VSH_Exp2","2016_Mar_24_1518",NA
"Recordings/tutu.wav","no","t","t","u","yes","u","tutu","Training","alveolar","TrainingItems",1,99,199,31,NA,NA,NA,NA,NA,NA,NA,NA,NA,NA,134,FALSE,20,59.954172831,NA,"American English","VSH_Exp2","2016_Mar_24_1518",NA
NA,NA,NA,NA,NA,NA,NA,NA,NA,NA,NA,NA,NA,NA,NA,NA,NA,NA,NA,NA,NA,"space",1.83505606651,NA,NA,134,FALSE,20,59.954172831,NA,"American English","VSH_Exp2","2016_Mar_24_1518",NA
"Recordings/sapu.wav","no","s","p","a","no","u","sapu","Controls","alveolar","VoicingControls",NA,NA,NA,NA,0,0,0,47,NA,NA,NA,NA,"Yes",6.108,134,FALSE,20,59.954172831,NA,"American English","VSH_Exp2","2016_Mar_24_1518",NA
"Recordings/pisa.wav","no","p","s","i","yes","a","pisa","Controls","bilabial","VoicingControls",NA,NA,NA,NA,0,1,1,46,NA,NA,NA,NA,"Yes",3.856,134,FALSE,20,59.954172831,NA,"American English","VSH_Exp2","2016_Mar_24_1518",NA
"Recordings/vavu.wav","yes","v","v","a","no","u","vavu","Test","bilabial","NewWordTestStimuli",NA,NA,NA,NA,0,2,2,26,NA,NA,NA,NA,"Yes",0.82,134,FALSE,20,59.954172831,NA,"American English","VSH_Exp2","2016_Mar_24_1518",NA
"Recordings/diba.wav","yes","d","b","i","yes","a","diba","Test","alveolar","NewWordTestStimuli",NA,NA,NA,NA,0,3,3,23,NA,NA,NA,NA,"No",3.822,134,FALSE,20,59.954172831,NA,"American English","VSH_Exp2","2016_Mar_24_1518",NA
"Recordings/pazu.wav","no","p","z","a","yes","u","pazu","Controls","bilabial","NoPatternControls",NA,NA,NA,NA,0,4,4,56,NA,NA,NA,NA,"Yes",4.109,134,FALSE,20,59.954172831,NA,"American English","VSH_Exp2","2016_Mar_24_1518",NA
"Recordings/dadi.wav","yes","d","d","a","yes","i","dadi","Test","alveolar","NewWordTestStimuli",NA,NA,NA,NA,0,5,5,24,NA,NA,NA,NA,"No",4.074,134,FALSE,20,59.954172831,NA,"American English","VSH_Exp2","2016_Mar_24_1518",NA
"Recordings/sifi.wav","no","s","f","i","no","i","sifi","Test","alveolar","NewConsTestStimuli",NA,NA,NA,NA,0,6,6,14,NA,NA,NA,NA,"No",1.686,134,FALSE,20,59.954172831,NA,"American English","VSH_Exp2","2016_Mar_24_1518",NA
"Recordings/bafa.wav","yes","b","f","a","yes","a","bafa","Controls","bilabial","NoPatternControls",NA,NA,NA,NA,0,7,7,51,NA,NA,NA,NA,"No",1.719,134,FALSE,20,59.954172831,NA,"American English","VSH_Exp2","2016_Mar_24_1518",NA
"Recordings/visa.wav","yes","v","s","i","no","a","visa","Controls","bilabial","StopControls",NA,NA,NA,NA,0,8,8,32,NA,NA,NA,NA,"No",3.221,134,FALSE,20,59.954172831,NA,"American English","VSH_Exp2","2016_Mar_24_1518",NA
"Recordings/pabi.wav","no","p","b","a","yes","i","pabi","Controls","bilabial","StopControls",NA,NA,NA,NA,0,9,9,38,NA,NA,NA,NA,"Yes",2.221,134,FALSE,20,59.954172831,NA,"American English","VSH_Exp2","2016_Mar_24_1518",NA
"Recordings/fisi.wav","no","f","s","i","no","i","fisi","Test","bilabial","NewConsTestStimuli",NA,NA,NA,NA,0,10,10,11,NA,NA,NA,NA,"Yes",0.87,134,FALSE,20,59.954172831,NA,"American English","VSH_Exp2","2016_Mar_24_1518",NA
"Recordings/sisa.wav","no","s","s","i","no","a","sisa","Test","alveolar","OldTestStimuli",NA,NA,NA,NA,0,11,11,1,NA,NA,NA,NA,"Yes",0.92,134,FALSE,20,59.954172831,NA,"American English","VSH_Exp2","2016_Mar_24_1518",NA
"Recordings/pizi.wav","no","p","z","i","yes","i","pizi","Controls","bilabial","NoPatternControls",NA,NA,NA,NA,0,12,12,55,NA,NA,NA,NA,"Yes",0.702,134,FALSE,20,59.954172831,NA,"American English","VSH_Exp2","2016_Mar_24_1518",NA
"Recordings/pada.wav","no","p","d","a","yes","a","pada","Controls","bilabial","StopControls",NA,NA,NA,NA,0,13,13,30,NA,NA,NA,NA,"No",1.622,134,FALSE,20,59.954172831,NA,"American English","VSH_Exp2","2016_Mar_24_1518",NA
"Recordings/pafu.wav","no","p","f","a","yes","u","pafu","Controls","bilabial","VoicingControls",NA,NA,NA,NA,0,14,14,48,NA,NA,NA,NA,"Yes",3.656,134,FALSE,20,59.954172831,NA,"American English","VSH_Exp2","2016_Mar_24_1518",NA
"Recordings/suza.wav","no","s","z","u","no","a","suza","Controls","alveolar","StopControls",NA,NA,NA,NA,0,15,15,39,NA,NA,NA,NA,"Yes",2.538,134,FALSE,20,59.954172831,NA,"American English","VSH_Exp2","2016_Mar_24_1518",NA
"Recordings/bizi.wav","yes","b","z","i","yes","i","bizi","Controls","bilabial","VoicingControls",NA,NA,NA,NA,0,16,16,41,NA,NA,NA,NA,"Yes",1.671,134,FALSE,20,59.954172831,NA,"American English","VSH_Exp2","2016_Mar_24_1518",NA
"Recordings/vivu.wav","yes","v","v","i","no","u","vivu","Test","bilabial","OldTestStimuli",NA,NA,NA,NA,0,17,17,5,NA,NA,NA,NA,"Yes",0.736,134,FALSE,20,59.954172831,NA,"American English","VSH_Exp2","2016_Mar_24_1518",NA
"Recordings/sidi.wav","no","s","d","i","no","i","sidi","Controls","alveolar","NoPatternControls",NA,NA,NA,NA,0,18,18,57,NA,NA,NA,NA,"No",1.954,134,FALSE,20,59.954172831,NA,"American English","VSH_Exp2","2016_Mar_24_1518",NA
"Recordings/pavi.wav","no","p","v","a","yes","i","pavi","Controls","bilabial","NoPatternControls",NA,NA,NA,NA,0,19,19,50,NA,NA,NA,NA,"Yes",3.523,134,FALSE,20,59.954172831,NA,"American English","VSH_Exp2","2016_Mar_24_1518",NA
"Recordings/tapi.wav","no","t","p","a","yes","i","tapi","Test","alveolar","NewWordTestStimuli",NA,NA,NA,NA,0,20,20,22,NA,NA,NA,NA,"Yes",0.92,134,FALSE,20,59.954172831,NA,"American English","VSH_Exp2","2016_Mar_24_1518",NA
"Recordings/pifi.wav","no","p","f","i","yes","i","pifi","Controls","bilabial","VoicingControls",NA,NA,NA,NA,0,21,21,45,NA,NA,NA,NA,"No",1.687,134,FALSE,20,59.954172831,NA,"American English","VSH_Exp2","2016_Mar_24_1518",NA
"Recordings/fusa.wav","no","f","s","u","no","a","fusa","Test","bilabial","NewConsTestStimuli",NA,NA,NA,NA,0,22,22,15,NA,NA,NA,NA,"Yes",5.023,134,FALSE,20,59.954172831,NA,"American English","VSH_Exp2","2016_Mar_24_1518",NA
"Recordings/pata.wav","no","p","t","a","yes","a","pata","Test","bilabial","OldTestStimuli",NA,NA,NA,NA,0,23,23,6,NA,NA,NA,NA,"Yes",2.589,134,FALSE,20,59.954172831,NA,"American English","VSH_Exp2","2016_Mar_24_1518",NA
"Recordings/sifu.wav","no","s","f","i","no","u","sifu","Test","alveolar","NewConsTestStimuli",NA,NA,NA,NA,0,24,24,16,NA,NA,NA,NA,"Yes",0.753,134,FALSE,20,59.954172831,NA,"American English","VSH_Exp2","2016_Mar_24_1518",NA
"Recordings/puvi.wav","no","p","v","u","yes","i","puvi","Controls","bilabial","NoPatternControls",NA,NA,NA,NA,0,25,25,53,NA,NA,NA,NA,"No",2.105,134,FALSE,20,59.954172831,NA,"American English","VSH_Exp2","2016_Mar_24_1518",NA
"Recordings/biti.wav","yes","b","t","i","yes","i","biti","Controls","bilabial","StopControls",NA,NA,NA,NA,0,26,26,31,NA,NA,NA,NA,"Yes",2.022,134,FALSE,20,59.954172831,NA,"American English","VSH_Exp2","2016_Mar_24_1518",NA
"Recordings/savi.wav","no","s","v","a","no","i","savi","Controls","alveolar","StopControls",NA,NA,NA,NA,0,27,27,37,NA,NA,NA,NA,"Yes",2.739,134,FALSE,20,59.954172831,NA,"American English","VSH_Exp2","2016_Mar_24_1518",NA
"Recordings/sidu.wav","no","s","d","i","no","u","sidu","Controls","alveolar","NoPatternControls",NA,NA,NA,NA,0,28,28,59,NA,NA,NA,NA,"No",3.523,134,FALSE,20,59.954172831,NA,"American English","VSH_Exp2","2016_Mar_24_1518",NA
"Recordings/didu.wav","yes","d","d","i","yes","u","didu","Test","alveolar","NewWordTestStimuli",NA,NA,NA,NA,0,29,29,20,NA,NA,NA,NA,"Yes",2.387,134,FALSE,20,59.954172831,NA,"American English","VSH_Exp2","2016_Mar_24_1518",NA
"Recordings/vida.wav","yes","v","d","i","no","a","vida","Controls","bilabial","VoicingControls",NA,NA,NA,NA,0,30,30,42,NA,NA,NA,NA,"Yes",1.371,134,FALSE,20,59.954172831,NA,"American English","VSH_Exp2","2016_Mar_24_1518",NA
"Recordings/bidi.wav","yes","b","d","i","yes","i","bidi","Test","bilabial","NewWordTestStimuli",NA,NA,NA,NA,0,31,31,21,NA,NA,NA,NA,"Yes",1.737,134,FALSE,20,59.954172831,NA,"American English","VSH_Exp2","2016_Mar_24_1518",NA
"Recordings/vuvu.wav","yes","v","v","u","no","u","vuvu","Test","bilabial","NewWordTestStimuli",NA,NA,NA,NA,0,32,32,28,NA,NA,NA,NA,"Yes",1.354,134,FALSE,20,59.954172831,NA,"American English","VSH_Exp2","2016_Mar_24_1518",NA
"Recordings/suti.wav","no","s","t","u","no","i","suti","Controls","alveolar","VoicingControls",NA,NA,NA,NA,0,33,33,49,NA,NA,NA,NA,"No",2.939,134,FALSE,20,59.954172831,NA,"American English","VSH_Exp2","2016_Mar_24_1518",NA
"Recordings/dabi.wav","yes","d","b","a","yes","i","dabi","Test","alveolar","NewWordTestStimuli",NA,NA,NA,NA,0,34,34,25,NA,NA,NA,NA,"Yes",1.303,134,FALSE,20,59.954172831,NA,"American English","VSH_Exp2","2016_Mar_24_1518",NA
"Recordings/safi.wav","no","s","f","a","no","i","safi","Test","alveolar","NewConsTestStimuli",NA,NA,NA,NA,0,35,35,18,NA,NA,NA,NA,"Yes",1.37,134,FALSE,20,59.954172831,NA,"American English","VSH_Exp2","2016_Mar_24_1518",NA
"Recordings/sufu.wav","no","s","f","u","no","u","sufu","Test","alveolar","NewConsTestStimuli",NA,NA,NA,NA,0,36,36,19,NA,NA,NA,NA,"Yes",1.82,134,FALSE,20,59.954172831,NA,"American English","VSH_Exp2","2016_Mar_24_1518",NA
"Recordings/tupu.wav","no","t","p","u","yes","u","tupu","Test","alveolar","OldTestStimuli",NA,NA,NA,NA,0,37,37,3,NA,NA,NA,NA,"Yes",2.155,134,FALSE,20,59.954172831,NA,"American English","VSH_Exp2","2016_Mar_24_1518",NA
"Recordings/papa.wav","no","p","p","a","yes","a","papa","Test","bilabial","OldTestStimuli",NA,NA,NA,NA,0,38,38,9,NA,NA,NA,NA,"Yes",2.004,134,FALSE,20,59.954172831,NA,"American English","VSH_Exp2","2016_Mar_24_1518",NA
"Recordings/pibi.wav","no","p","b","i","yes","i","pibi","Controls","bilabial","StopControls",NA,NA,NA,NA,0,39,39,35,NA,NA,NA,NA,"Yes",1.236,134,FALSE,20,59.954172831,NA,"American English","VSH_Exp2","2016_Mar_24_1518",NA
"Recordings/pubi.wav","no","p","b","u","yes","i","pubi","Controls","bilabial","StopControls",NA,NA,NA,NA,0,40,40,34,NA,NA,NA,NA,"Yes",0.406,134,FALSE,20,59.954172831,NA,"American English","VSH_Exp2","2016_Mar_24_1518",NA
"Recordings/pazi.wav","no","p","z","a","yes","i","pazi","Controls","bilabial","NoPatternControls",NA,NA,NA,NA,0,41,41,54,NA,NA,NA,NA,"Yes",0.406,134,FALSE,20,59.954172831,NA,"American English","VSH_Exp2","2016_Mar_24_1518",NA
"Recordings/dibi.wav","yes","d","b","i","yes","i","dibi","Test","alveolar","NewWordTestStimuli",NA,NA,NA,NA,0,42,42,27,NA,NA,NA,NA,"Yes",3.623,134,FALSE,20,59.954172831,NA,"American English","VSH_Exp2","2016_Mar_24_1518",NA
"Recordings/vivi.wav","yes","v","v","i","no","i","vivi","Test","bilabial","OldTestStimuli",NA,NA,NA,NA,0,43,43,8,NA,NA,NA,NA,"Yes",1.287,134,FALSE,20,59.954172831,NA,"American English","VSH_Exp2","2016_Mar_24_1518",NA
"Recordings/tatu.wav","no","t","t","a","yes","u","tatu","Test","alveolar","OldTestStimuli",NA,NA,NA,NA,0,44,44,7,NA,NA,NA,NA,"Yes",2.821,134,FALSE,20,59.954172831,NA,"American English","VSH_Exp2","2016_Mar_24_1518",NA
"Recordings/tata.wav","no","t","t","a","yes","a","tata","Test","alveolar","NewWordTestStimuli",NA,NA,NA,NA,0,45,45,29,NA,NA,NA,NA,"No",2.721,134,FALSE,20,59.954172831,NA,"American English","VSH_Exp2","2016_Mar_24_1518",NA
"Recordings/pusa.wav","no","p","s","u","yes","a","pusa","Controls","bilabial","VoicingControls",NA,NA,NA,NA,0,46,46,43,NA,NA,NA,NA,"Yes",1.387,134,FALSE,20,59.954172831,NA,"American English","VSH_Exp2","2016_Mar_24_1518",NA
"Recordings/fasu.wav","no","f","s","a","no","u","fasu","Test","bilabial","NewConsTestStimuli",NA,NA,NA,NA,0,47,47,10,NA,NA,NA,NA,"Yes",4.307,134,FALSE,20,59.954172831,NA,"American English","VSH_Exp2","2016_Mar_24_1518",NA
"Recordings/fusi.wav","no","f","s","u","no","i","fusi","Test","bilabial","NewConsTestStimuli",NA,NA,NA,NA,0,48,48,13,NA,NA,NA,NA,"No",2.004,134,FALSE,20,59.954172831,NA,"American English","VSH_Exp2","2016_Mar_24_1518",NA
"Recordings/bida.wav","yes","b","d","i","yes","a","bida","Test","bilabial","OldTestStimuli",NA,NA,NA,NA,0,49,49,0,NA,NA,NA,NA,"Yes",1.587,134,FALSE,20,59.954172831,NA,"American English","VSH_Exp2","2016_Mar_24_1518",NA
"Recordings/sifa.wav","no","s","f","i","no","a","sifa","Test","alveolar","NewConsTestStimuli",NA,NA,NA,NA,0,50,50,17,NA,NA,NA,NA,"Yes",1.52,134,FALSE,20,59.954172831,NA,"American English","VSH_Exp2","2016_Mar_24_1518",NA
"Recordings/puva.wav","no","p","v","u","yes","a","puva","Controls","bilabial","NoPatternControls",NA,NA,NA,NA,0,51,51,58,NA,NA,NA,NA,"Yes",1.62,134,FALSE,20,59.954172831,NA,"American English","VSH_Exp2","2016_Mar_24_1518",NA
"Recordings/pida.wav","no","p","d","i","yes","a","pida","Controls","bilabial","StopControls",NA,NA,NA,NA,0,52,52,36,NA,NA,NA,NA,"Yes",2.42,134,FALSE,20,59.954172831,NA,"American English","VSH_Exp2","2016_Mar_24_1518",NA
"Recordings/vipa.wav","yes","v","p","i","no","a","vipa","Controls","bilabial","NoPatternControls",NA,NA,NA,NA,0,53,53,52,NA,NA,NA,NA,"No",1.773,134,FALSE,20,59.954172831,NA,"American English","VSH_Exp2","2016_Mar_24_1518",NA
"Recordings/zivi.wav","yes","z","v","i","no","i","zivi","Test","alveolar","OldTestStimuli",NA,NA,NA,NA,0,54,54,4,NA,NA,NA,NA,"Yes",1.403,134,FALSE,20,59.954172831,NA,"American English","VSH_Exp2","2016_Mar_24_1518",NA
"Recordings/puda.wav","no","p","d","u","yes","a","puda","Controls","bilabial","StopControls",NA,NA,NA,NA,0,55,55,33,NA,NA,NA,NA,"No",1.404,134,FALSE,20,59.954172831,NA,"American English","VSH_Exp2","2016_Mar_24_1518",NA
"Recordings/pufi.wav","no","p","f","u","yes","i","pufi","Controls","bilabial","VoicingControls",NA,NA,NA,NA,0,56,56,44,NA,NA,NA,NA,"No",2.104,134,FALSE,20,59.954172831,NA,"American English","VSH_Exp2","2016_Mar_24_1518",NA
"Recordings/safu.wav","no","s","f","a","no","u","safu","Test","alveolar","NewConsTestStimuli",NA,NA,NA,NA,0,57,57,12,NA,NA,NA,NA,"Yes",1.187,134,FALSE,20,59.954172831,NA,"American English","VSH_Exp2","2016_Mar_24_1518",NA
"Recordings/pafa.wav","no","p","f","a","yes","a","pafa","Controls","bilabial","VoicingControls",NA,NA,NA,NA,0,58,58,40,NA,NA,NA,NA,"Yes",1.253,134,FALSE,20,59.954172831,NA,"American English","VSH_Exp2","2016_Mar_24_1518",NA
"Recordings/zava.wav","yes","z","v","a","no","a","zava","Test","alveolar","OldTestStimuli",NA,NA,NA,NA,0,59,59,2,NA,NA,NA,NA,"Yes",2.705,134,FALSE,20,59.954172831,NA,"American English","VSH_Exp2","2016_Mar_24_1518",NA
