"SOUND","VOICING","SEGMENT","SEGMENT3","SEGMENT2","STOP","SEGMENT4","STIMULUS","GENERAL_TYPE","PLACE","TYPE","trials.thisRepN","trials.thisTrialN","trials.thisN","trials.thisIndex","trials_2.thisRepN","trials_2.thisTrialN","trials_2.thisN","trials_2.thisIndex","SpaceBar.keys","SpaceBar.rt","key_resp_2.keys","key_resp_2.rt","rating.response","rating.rt","participant","Gender","Age","frameRate","OtherLanguages","NativeLanguage","expName","date","X34"
NA,NA,NA,NA,NA,NA,NA,NA,NA,NA,NA,NA,NA,NA,NA,NA,NA,NA,NA,"space",3.23665904999,NA,NA,NA,NA,136,"M",19,60.0279652224,"Spanish, Hebrew, French","American English","VSH_Exp2","2016_Mar_24_1519",NA
"Recordings/fasu.wav","no","f","s","a","no","u","fasu","Training","bilabial","TrainingItems",0,0,0,66,NA,NA,NA,NA,NA,NA,NA,NA,NA,NA,136,"M",19,60.0279652224,"Spanish, Hebrew, French","American English","VSH_Exp2","2016_Mar_24_1519",NA
"Recordings/bubi.wav","yes","b","b","u","yes","i","bubi","Training","bilabial","TrainingItems",0,1,1,89,NA,NA,NA,NA,NA,NA,NA,NA,NA,NA,136,"M",19,60.0279652224,"Spanish, Hebrew, French","American English","VSH_Exp2","2016_Mar_24_1519",NA
"Recordings/sasa.wav","no","s","s","a","no","a","sasa","Training","alveolar","TrainingItems",0,2,2,18,NA,NA,NA,NA,NA,NA,NA,NA,NA,NA,136,"M",19,60.0279652224,"Spanish, Hebrew, French","American English","VSH_Exp2","2016_Mar_24_1519",NA
"Recordings/tipi.wav","no","t","p","i","yes","i","tipi","Training","alveolar","TrainingItems",0,3,3,42,NA,NA,NA,NA,NA,NA,NA,NA,NA,NA,136,"M",19,60.0279652224,"Spanish, Hebrew, French","American English","VSH_Exp2","2016_Mar_24_1519",NA
"Recordings/fasa.wav","no","f","s","a","no","a","fasa","Training","bilabial","TrainingItems",0,4,4,20,NA,NA,NA,NA,NA,NA,NA,NA,NA,NA,136,"M",19,60.0279652224,"Spanish, Hebrew, French","American English","VSH_Exp2","2016_Mar_24_1519",NA
"Recordings/daba.wav","yes","d","b","a","yes","a","daba","Training","alveolar","TrainingItems",0,5,5,54,NA,NA,NA,NA,NA,NA,NA,NA,NA,NA,136,"M",19,60.0279652224,"Spanish, Hebrew, French","American English","VSH_Exp2","2016_Mar_24_1519",NA
"Recordings/tupu.wav","no","t","p","u","yes","u","tupu","Training","alveolar","TrainingItems",0,6,6,58,NA,NA,NA,NA,NA,NA,NA,NA,NA,NA,136,"M",19,60.0279652224,"Spanish, Hebrew, French","American English","VSH_Exp2","2016_Mar_24_1519",NA
"Recordings/dubi.wav","yes","d","b","u","yes","i","dubi","Training","alveolar","TrainingItems",0,7,7,81,NA,NA,NA,NA,NA,NA,NA,NA,NA,NA,136,"M",19,60.0279652224,"Spanish, Hebrew, French","American English","VSH_Exp2","2016_Mar_24_1519",NA
"Recordings/fusa.wav","no","f","s","u","no","a","fusa","Training","bilabial","TrainingItems",0,8,8,4,NA,NA,NA,NA,NA,NA,NA,NA,NA,NA,136,"M",19,60.0279652224,"Spanish, Hebrew, French","American English","VSH_Exp2","2016_Mar_24_1519",NA
"Recordings/fusi.wav","no","f","s","u","no","i","fusi","Training","bilabial","TrainingItems",0,9,9,78,NA,NA,NA,NA,NA,NA,NA,NA,NA,NA,136,"M",19,60.0279652224,"Spanish, Hebrew, French","American English","VSH_Exp2","2016_Mar_24_1519",NA
"Recordings/bibi.wav","yes","b","b","i","yes","i","bibi","Training","bilabial","TrainingItems",0,10,10,29,NA,NA,NA,NA,NA,NA,NA,NA,NA,NA,136,"M",19,60.0279652224,"Spanish, Hebrew, French","American English","VSH_Exp2","2016_Mar_24_1519",NA
"Recordings/fifu.wav","no","f","f","i","no","u","fifu","Training","bilabial","TrainingItems",0,11,11,90,NA,NA,NA,NA,NA,NA,NA,NA,NA,NA,136,"M",19,60.0279652224,"Spanish, Hebrew, French","American English","VSH_Exp2","2016_Mar_24_1519",NA
"Recordings/tutu.wav","no","t","t","u","yes","u","tutu","Training","alveolar","TrainingItems",0,12,12,10,NA,NA,NA,NA,NA,NA,NA,NA,NA,NA,136,"M",19,60.0279652224,"Spanish, Hebrew, French","American English","VSH_Exp2","2016_Mar_24_1519",NA
"Recordings/fasi.wav","no","f","s","a","no","i","fasi","Training","bilabial","TrainingItems",0,13,13,50,NA,NA,NA,NA,NA,NA,NA,NA,NA,NA,136,"M",19,60.0279652224,"Spanish, Hebrew, French","American English","VSH_Exp2","2016_Mar_24_1519",NA
"Recordings/dubu.wav","yes","d","b","u","yes","u","dubu","Training","alveolar","TrainingItems",0,14,14,53,NA,NA,NA,NA,NA,NA,NA,NA,NA,NA,136,"M",19,60.0279652224,"Spanish, Hebrew, French","American English","VSH_Exp2","2016_Mar_24_1519",NA
"Recordings/puta.wav","no","p","t","u","yes","a","puta","Training","bilabial","TrainingItems",0,15,15,80,NA,NA,NA,NA,NA,NA,NA,NA,NA,NA,136,"M",19,60.0279652224,"Spanish, Hebrew, French","American English","VSH_Exp2","2016_Mar_24_1519",NA
"Recordings/vavi.wav","yes","v","v","a","no","i","vavi","Training","bilabial","TrainingItems",0,16,16,14,NA,NA,NA,NA,NA,NA,NA,NA,NA,NA,136,"M",19,60.0279652224,"Spanish, Hebrew, French","American English","VSH_Exp2","2016_Mar_24_1519",NA
"Recordings/pata.wav","no","p","t","a","yes","a","pata","Training","bilabial","TrainingItems",0,17,17,63,NA,NA,NA,NA,NA,NA,NA,NA,NA,NA,136,"M",19,60.0279652224,"Spanish, Hebrew, French","American English","VSH_Exp2","2016_Mar_24_1519",NA
"Recordings/badu.wav","yes","b","d","a","yes","u","badu","Training","bilabial","TrainingItems",0,18,18,5,NA,NA,NA,NA,NA,NA,NA,NA,NA,NA,136,"M",19,60.0279652224,"Spanish, Hebrew, French","American English","VSH_Exp2","2016_Mar_24_1519",NA
"Recordings/bida.wav","yes","b","d","i","yes","a","bida","Training","bilabial","TrainingItems",0,19,19,33,NA,NA,NA,NA,NA,NA,NA,NA,NA,NA,136,"M",19,60.0279652224,"Spanish, Hebrew, French","American English","VSH_Exp2","2016_Mar_24_1519",NA
"Recordings/tapa.wav","no","t","p","a","yes","a","tapa","Training","alveolar","TrainingItems",0,20,20,25,NA,NA,NA,NA,NA,NA,NA,NA,NA,NA,136,"M",19,60.0279652224,"Spanish, Hebrew, French","American English","VSH_Exp2","2016_Mar_24_1519",NA
"Recordings/duda.wav","yes","d","d","u","yes","a","duda","Training","alveolar","TrainingItems",0,21,21,8,NA,NA,NA,NA,NA,NA,NA,NA,NA,NA,136,"M",19,60.0279652224,"Spanish, Hebrew, French","American English","VSH_Exp2","2016_Mar_24_1519",NA
"Recordings/dudi.wav","yes","d","d","u","yes","i","dudi","Training","alveolar","TrainingItems",0,22,22,60,NA,NA,NA,NA,NA,NA,NA,NA,NA,NA,136,"M",19,60.0279652224,"Spanish, Hebrew, French","American English","VSH_Exp2","2016_Mar_24_1519",NA
"Recordings/sufi.wav","no","s","f","u","no","i","sufi","Training","alveolar","TrainingItems",0,23,23,46,NA,NA,NA,NA,NA,NA,NA,NA,NA,NA,136,"M",19,60.0279652224,"Spanish, Hebrew, French","American English","VSH_Exp2","2016_Mar_24_1519",NA
"Recordings/fafu.wav","no","f","f","a","no","u","fafu","Training","bilabial","TrainingItems",0,24,24,0,NA,NA,NA,NA,NA,NA,NA,NA,NA,NA,136,"M",19,60.0279652224,"Spanish, Hebrew, French","American English","VSH_Exp2","2016_Mar_24_1519",NA
"Recordings/tapu.wav","no","t","p","a","yes","u","tapu","Training","alveolar","TrainingItems",0,25,25,16,NA,NA,NA,NA,NA,NA,NA,NA,NA,NA,136,"M",19,60.0279652224,"Spanish, Hebrew, French","American English","VSH_Exp2","2016_Mar_24_1519",NA
"Recordings/pupi.wav","no","p","p","u","yes","i","pupi","Training","bilabial","TrainingItems",0,26,26,67,NA,NA,NA,NA,NA,NA,NA,NA,NA,NA,136,"M",19,60.0279652224,"Spanish, Hebrew, French","American English","VSH_Exp2","2016_Mar_24_1519",NA
"Recordings/didi.wav","yes","d","d","i","yes","i","didi","Training","alveolar","TrainingItems",0,27,27,41,NA,NA,NA,NA,NA,NA,NA,NA,NA,NA,136,"M",19,60.0279652224,"Spanish, Hebrew, French","American English","VSH_Exp2","2016_Mar_24_1519",NA
"Recordings/sufa.wav","no","s","f","u","no","a","sufa","Training","alveolar","TrainingItems",0,28,28,69,NA,NA,NA,NA,NA,NA,NA,NA,NA,NA,136,"M",19,60.0279652224,"Spanish, Hebrew, French","American English","VSH_Exp2","2016_Mar_24_1519",NA
"Recordings/zuza.wav","yes","z","z","u","no","a","zuza","Training","alveolar","TrainingItems",0,29,29,85,NA,NA,NA,NA,NA,NA,NA,NA,NA,NA,136,"M",19,60.0279652224,"Spanish, Hebrew, French","American English","VSH_Exp2","2016_Mar_24_1519",NA
"Recordings/dudu.wav","yes","d","d","u","yes","u","dudu","Training","alveolar","TrainingItems",0,30,30,55,NA,NA,NA,NA,NA,NA,NA,NA,NA,NA,136,"M",19,60.0279652224,"Spanish, Hebrew, French","American English","VSH_Exp2","2016_Mar_24_1519",NA
"Recordings/pipi.wav","no","p","p","i","yes","i","pipi","Training","bilabial","TrainingItems",0,31,31,62,NA,NA,NA,NA,NA,NA,NA,NA,NA,NA,136,"M",19,60.0279652224,"Spanish, Hebrew, French","American English","VSH_Exp2","2016_Mar_24_1519",NA
"Recordings/safa.wav","no","s","f","a","no","a","safa","Training","alveolar","TrainingItems",0,32,32,31,NA,NA,NA,NA,NA,NA,NA,NA,NA,NA,136,"M",19,60.0279652224,"Spanish, Hebrew, French","American English","VSH_Exp2","2016_Mar_24_1519",NA
"Recordings/baba.wav","yes","b","b","a","yes","a","baba","Training","bilabial","TrainingItems",0,33,33,38,NA,NA,NA,NA,NA,NA,NA,NA,NA,NA,136,"M",19,60.0279652224,"Spanish, Hebrew, French","American English","VSH_Exp2","2016_Mar_24_1519",NA
"Recordings/zaza.wav","yes","z","z","a","no","a","zaza","Training","alveolar","TrainingItems",0,34,34,27,NA,NA,NA,NA,NA,NA,NA,NA,NA,NA,136,"M",19,60.0279652224,"Spanish, Hebrew, French","American English","VSH_Exp2","2016_Mar_24_1519",NA
"Recordings/sisa.wav","no","s","s","i","no","a","sisa","Training","alveolar","TrainingItems",0,35,35,72,NA,NA,NA,NA,NA,NA,NA,NA,NA,NA,136,"M",19,60.0279652224,"Spanish, Hebrew, French","American English","VSH_Exp2","2016_Mar_24_1519",NA
"Recordings/babi.wav","yes","b","b","a","yes","i","babi","Training","bilabial","TrainingItems",0,36,36,36,NA,NA,NA,NA,NA,NA,NA,NA,NA,NA,136,"M",19,60.0279652224,"Spanish, Hebrew, French","American English","VSH_Exp2","2016_Mar_24_1519",NA
"Recordings/tupi.wav","no","t","p","u","yes","i","tupi","Training","alveolar","TrainingItems",0,37,37,22,NA,NA,NA,NA,NA,NA,NA,NA,NA,NA,136,"M",19,60.0279652224,"Spanish, Hebrew, French","American English","VSH_Exp2","2016_Mar_24_1519",NA
"Recordings/tipa.wav","no","t","p","i","yes","a","tipa","Training","alveolar","TrainingItems",0,38,38,30,NA,NA,NA,NA,NA,NA,NA,NA,NA,NA,136,"M",19,60.0279652224,"Spanish, Hebrew, French","American English","VSH_Exp2","2016_Mar_24_1519",NA
"Recordings/dadi.wav","yes","d","d","a","yes","i","dadi","Training","alveolar","TrainingItems",0,39,39,40,NA,NA,NA,NA,NA,NA,NA,NA,NA,NA,136,"M",19,60.0279652224,"Spanish, Hebrew, French","American English","VSH_Exp2","2016_Mar_24_1519",NA
"Recordings/tuta.wav","no","t","t","u","yes","a","tuta","Training","alveolar","TrainingItems",0,40,40,97,NA,NA,NA,NA,NA,NA,NA,NA,NA,NA,136,"M",19,60.0279652224,"Spanish, Hebrew, French","American English","VSH_Exp2","2016_Mar_24_1519",NA
"Recordings/patu.wav","no","p","t","a","yes","u","patu","Training","bilabial","TrainingItems",0,41,41,73,NA,NA,NA,NA,NA,NA,NA,NA,NA,NA,136,"M",19,60.0279652224,"Spanish, Hebrew, French","American English","VSH_Exp2","2016_Mar_24_1519",NA
"Recordings/pitu.wav","no","p","t","i","yes","u","pitu","Training","bilabial","TrainingItems",0,42,42,64,NA,NA,NA,NA,NA,NA,NA,NA,NA,NA,136,"M",19,60.0279652224,"Spanish, Hebrew, French","American English","VSH_Exp2","2016_Mar_24_1519",NA
"Recordings/pati.wav","no","p","t","a","yes","i","pati","Training","bilabial","TrainingItems",0,43,43,61,NA,NA,NA,NA,NA,NA,NA,NA,NA,NA,136,"M",19,60.0279652224,"Spanish, Hebrew, French","American English","VSH_Exp2","2016_Mar_24_1519",NA
"Recordings/dibi.wav","yes","d","b","i","yes","i","dibi","Training","alveolar","TrainingItems",0,44,44,43,NA,NA,NA,NA,NA,NA,NA,NA,NA,NA,136,"M",19,60.0279652224,"Spanish, Hebrew, French","American English","VSH_Exp2","2016_Mar_24_1519",NA
"Recordings/zuzi.wav","yes","z","z","u","no","i","zuzi","Training","alveolar","TrainingItems",0,45,45,95,NA,NA,NA,NA,NA,NA,NA,NA,NA,NA,136,"M",19,60.0279652224,"Spanish, Hebrew, French","American English","VSH_Exp2","2016_Mar_24_1519",NA
"Recordings/diba.wav","yes","d","b","i","yes","a","diba","Training","alveolar","TrainingItems",0,46,46,13,NA,NA,NA,NA,NA,NA,NA,NA,NA,NA,136,"M",19,60.0279652224,"Spanish, Hebrew, French","American English","VSH_Exp2","2016_Mar_24_1519",NA
"Recordings/dabi.wav","yes","d","b","a","yes","i","dabi","Training","alveolar","TrainingItems",0,47,47,96,NA,NA,NA,NA,NA,NA,NA,NA,NA,NA,136,"M",19,60.0279652224,"Spanish, Hebrew, French","American English","VSH_Exp2","2016_Mar_24_1519",NA
"Recordings/budi.wav","yes","b","d","u","yes","i","budi","Training","bilabial","TrainingItems",0,48,48,74,NA,NA,NA,NA,NA,NA,NA,NA,NA,NA,136,"M",19,60.0279652224,"Spanish, Hebrew, French","American English","VSH_Exp2","2016_Mar_24_1519",NA
"Recordings/sifu.wav","no","s","f","i","no","u","sifu","Training","alveolar","TrainingItems",0,49,49,19,NA,NA,NA,NA,NA,NA,NA,NA,NA,NA,136,"M",19,60.0279652224,"Spanish, Hebrew, French","American English","VSH_Exp2","2016_Mar_24_1519",NA
"Recordings/duba.wav","yes","d","b","u","yes","a","duba","Training","alveolar","TrainingItems",0,50,50,94,NA,NA,NA,NA,NA,NA,NA,NA,NA,NA,136,"M",19,60.0279652224,"Spanish, Hebrew, French","American English","VSH_Exp2","2016_Mar_24_1519",NA
"Recordings/susa.wav","no","s","s","u","no","a","susa","Training","alveolar","TrainingItems",0,51,51,48,NA,NA,NA,NA,NA,NA,NA,NA,NA,NA,136,"M",19,60.0279652224,"Spanish, Hebrew, French","American English","VSH_Exp2","2016_Mar_24_1519",NA
"Recordings/dida.wav","yes","d","d","i","yes","a","dida","Training","alveolar","TrainingItems",0,52,52,24,NA,NA,NA,NA,NA,NA,NA,NA,NA,NA,136,"M",19,60.0279652224,"Spanish, Hebrew, French","American English","VSH_Exp2","2016_Mar_24_1519",NA
"Recordings/titu.wav","no","t","t","i","yes","u","titu","Training","alveolar","TrainingItems",0,53,53,88,NA,NA,NA,NA,NA,NA,NA,NA,NA,NA,136,"M",19,60.0279652224,"Spanish, Hebrew, French","American English","VSH_Exp2","2016_Mar_24_1519",NA
"Recordings/sasi.wav","no","s","s","a","no","i","sasi","Training","alveolar","TrainingItems",0,54,54,2,NA,NA,NA,NA,NA,NA,NA,NA,NA,NA,136,"M",19,60.0279652224,"Spanish, Hebrew, French","American English","VSH_Exp2","2016_Mar_24_1519",NA
"Recordings/puti.wav","no","p","t","u","yes","i","puti","Training","bilabial","TrainingItems",0,55,55,65,NA,NA,NA,NA,NA,NA,NA,NA,NA,NA,136,"M",19,60.0279652224,"Spanish, Hebrew, French","American English","VSH_Exp2","2016_Mar_24_1519",NA
"Recordings/vuva.wav","yes","v","v","u","no","a","vuva","Training","bilabial","TrainingItems",0,56,56,82,NA,NA,NA,NA,NA,NA,NA,NA,NA,NA,136,"M",19,60.0279652224,"Spanish, Hebrew, French","American English","VSH_Exp2","2016_Mar_24_1519",NA
"Recordings/viva.wav","yes","v","v","i","no","a","viva","Training","bilabial","TrainingItems",0,57,57,47,NA,NA,NA,NA,NA,NA,NA,NA,NA,NA,136,"M",19,60.0279652224,"Spanish, Hebrew, French","American English","VSH_Exp2","2016_Mar_24_1519",NA
"Recordings/zizi.wav","yes","z","z","i","no","i","zizi","Training","alveolar","TrainingItems",0,58,58,35,NA,NA,NA,NA,NA,NA,NA,NA,NA,NA,136,"M",19,60.0279652224,"Spanish, Hebrew, French","American English","VSH_Exp2","2016_Mar_24_1519",NA
"Recordings/susi.wav","no","s","s","u","no","i","susi","Training","alveolar","TrainingItems",0,59,59,71,NA,NA,NA,NA,NA,NA,NA,NA,NA,NA,136,"M",19,60.0279652224,"Spanish, Hebrew, French","American English","VSH_Exp2","2016_Mar_24_1519",NA
"Recordings/tita.wav","no","t","t","i","yes","a","tita","Training","alveolar","TrainingItems",0,60,60,21,NA,NA,NA,NA,NA,NA,NA,NA,NA,NA,136,"M",19,60.0279652224,"Spanish, Hebrew, French","American English","VSH_Exp2","2016_Mar_24_1519",NA
"Recordings/vuvi.wav","yes","v","v","u","no","i","vuvi","Training","bilabial","TrainingItems",0,61,61,6,NA,NA,NA,NA,NA,NA,NA,NA,NA,NA,136,"M",19,60.0279652224,"Spanish, Hebrew, French","American English","VSH_Exp2","2016_Mar_24_1519",NA
"Recordings/tata.wav","no","t","t","a","yes","a","tata","Training","alveolar","TrainingItems",0,62,62,92,NA,NA,NA,NA,NA,NA,NA,NA,NA,NA,136,"M",19,60.0279652224,"Spanish, Hebrew, French","American English","VSH_Exp2","2016_Mar_24_1519",NA
"Recordings/vava.wav","yes","v","v","a","no","a","vava","Training","bilabial","TrainingItems",0,63,63,32,NA,NA,NA,NA,NA,NA,NA,NA,NA,NA,136,"M",19,60.0279652224,"Spanish, Hebrew, French","American English","VSH_Exp2","2016_Mar_24_1519",NA
"Recordings/fifa.wav","no","f","f","i","no","a","fifa","Training","bilabial","TrainingItems",0,64,64,3,NA,NA,NA,NA,NA,NA,NA,NA,NA,NA,136,"M",19,60.0279652224,"Spanish, Hebrew, French","American English","VSH_Exp2","2016_Mar_24_1519",NA
"Recordings/pipa.wav","no","p","p","i","yes","a","pipa","Training","bilabial","TrainingItems",0,65,65,84,NA,NA,NA,NA,NA,NA,NA,NA,NA,NA,136,"M",19,60.0279652224,"Spanish, Hebrew, French","American English","VSH_Exp2","2016_Mar_24_1519",NA
"Recordings/pupa.wav","no","p","p","u","yes","a","pupa","Training","bilabial","TrainingItems",0,66,66,34,NA,NA,NA,NA,NA,NA,NA,NA,NA,NA,136,"M",19,60.0279652224,"Spanish, Hebrew, French","American English","VSH_Exp2","2016_Mar_24_1519",NA
"Recordings/papu.wav","no","p","p","a","yes","u","papu","Training","bilabial","TrainingItems",0,67,67,91,NA,NA,NA,NA,NA,NA,NA,NA,NA,NA,136,"M",19,60.0279652224,"Spanish, Hebrew, French","American English","VSH_Exp2","2016_Mar_24_1519",NA
"Recordings/ziza.wav","yes","z","z","i","no","a","ziza","Training","alveolar","TrainingItems",0,68,68,15,NA,NA,NA,NA,NA,NA,NA,NA,NA,NA,136,"M",19,60.0279652224,"Spanish, Hebrew, French","American English","VSH_Exp2","2016_Mar_24_1519",NA
"Recordings/fafa.wav","no","f","f","a","no","a","fafa","Training","bilabial","TrainingItems",0,69,69,1,NA,NA,NA,NA,NA,NA,NA,NA,NA,NA,136,"M",19,60.0279652224,"Spanish, Hebrew, French","American English","VSH_Exp2","2016_Mar_24_1519",NA
"Recordings/dibu.wav","yes","d","b","i","yes","u","dibu","Training","alveolar","TrainingItems",0,70,70,9,NA,NA,NA,NA,NA,NA,NA,NA,NA,NA,136,"M",19,60.0279652224,"Spanish, Hebrew, French","American English","VSH_Exp2","2016_Mar_24_1519",NA
"Recordings/bada.wav","yes","b","d","a","yes","a","bada","Training","bilabial","TrainingItems",0,71,71,51,NA,NA,NA,NA,NA,NA,NA,NA,NA,NA,136,"M",19,60.0279652224,"Spanish, Hebrew, French","American English","VSH_Exp2","2016_Mar_24_1519",NA
"Recordings/vuvu.wav","yes","v","v","u","no","u","vuvu","Training","bilabial","TrainingItems",0,72,72,86,NA,NA,NA,NA,NA,NA,NA,NA,NA,NA,136,"M",19,60.0279652224,"Spanish, Hebrew, French","American English","VSH_Exp2","2016_Mar_24_1519",NA
"Recordings/buba.wav","yes","b","b","u","yes","a","buba","Training","bilabial","TrainingItems",0,73,73,23,NA,NA,NA,NA,NA,NA,NA,NA,NA,NA,136,"M",19,60.0279652224,"Spanish, Hebrew, French","American English","VSH_Exp2","2016_Mar_24_1519",NA
"Recordings/sisi.wav","no","s","s","i","no","i","sisi","Training","alveolar","TrainingItems",0,74,74,49,NA,NA,NA,NA,NA,NA,NA,NA,NA,NA,136,"M",19,60.0279652224,"Spanish, Hebrew, French","American English","VSH_Exp2","2016_Mar_24_1519",NA
"Recordings/piti.wav","no","p","t","i","yes","i","piti","Training","bilabial","TrainingItems",0,75,75,26,NA,NA,NA,NA,NA,NA,NA,NA,NA,NA,136,"M",19,60.0279652224,"Spanish, Hebrew, French","American English","VSH_Exp2","2016_Mar_24_1519",NA
"Recordings/sisu.wav","no","s","s","i","no","u","sisu","Training","alveolar","TrainingItems",0,76,76,76,NA,NA,NA,NA,NA,NA,NA,NA,NA,NA,136,"M",19,60.0279652224,"Spanish, Hebrew, French","American English","VSH_Exp2","2016_Mar_24_1519",NA
"Recordings/tapi.wav","no","t","p","a","yes","i","tapi","Training","alveolar","TrainingItems",0,77,77,44,NA,NA,NA,NA,NA,NA,NA,NA,NA,NA,136,"M",19,60.0279652224,"Spanish, Hebrew, French","American English","VSH_Exp2","2016_Mar_24_1519",NA
"Recordings/zazi.wav","yes","z","z","a","no","i","zazi","Training","alveolar","TrainingItems",0,78,78,57,NA,NA,NA,NA,NA,NA,NA,NA,NA,NA,136,"M",19,60.0279652224,"Spanish, Hebrew, French","American English","VSH_Exp2","2016_Mar_24_1519",NA
"Recordings/vivi.wav","yes","v","v","i","no","i","vivi","Training","bilabial","TrainingItems",0,79,79,37,NA,NA,NA,NA,NA,NA,NA,NA,NA,NA,136,"M",19,60.0279652224,"Spanish, Hebrew, French","American English","VSH_Exp2","2016_Mar_24_1519",NA
"Recordings/tuti.wav","no","t","t","u","yes","i","tuti","Training","alveolar","TrainingItems",0,80,80,70,NA,NA,NA,NA,NA,NA,NA,NA,NA,NA,136,"M",19,60.0279652224,"Spanish, Hebrew, French","American English","VSH_Exp2","2016_Mar_24_1519",NA
"Recordings/badi.wav","yes","b","d","a","yes","i","badi","Training","bilabial","TrainingItems",0,81,81,17,NA,NA,NA,NA,NA,NA,NA,NA,NA,NA,136,"M",19,60.0279652224,"Spanish, Hebrew, French","American English","VSH_Exp2","2016_Mar_24_1519",NA
"Recordings/tipu.wav","no","t","p","i","yes","u","tipu","Training","alveolar","TrainingItems",0,82,82,39,NA,NA,NA,NA,NA,NA,NA,NA,NA,NA,136,"M",19,60.0279652224,"Spanish, Hebrew, French","American English","VSH_Exp2","2016_Mar_24_1519",NA
"Recordings/didu.wav","yes","d","d","i","yes","u","didu","Training","alveolar","TrainingItems",0,83,83,83,NA,NA,NA,NA,NA,NA,NA,NA,NA,NA,136,"M",19,60.0279652224,"Spanish, Hebrew, French","American English","VSH_Exp2","2016_Mar_24_1519",NA
"Recordings/fisu.wav","no","f","s","i","no","u","fisu","Training","bilabial","TrainingItems",0,84,84,12,NA,NA,NA,NA,NA,NA,NA,NA,NA,NA,136,"M",19,60.0279652224,"Spanish, Hebrew, French","American English","VSH_Exp2","2016_Mar_24_1519",NA
"Recordings/papi.wav","no","p","p","a","yes","i","papi","Training","bilabial","TrainingItems",0,85,85,77,NA,NA,NA,NA,NA,NA,NA,NA,NA,NA,136,"M",19,60.0279652224,"Spanish, Hebrew, French","American English","VSH_Exp2","2016_Mar_24_1519",NA
"Recordings/dada.wav","yes","d","d","a","yes","a","dada","Training","alveolar","TrainingItems",0,86,86,79,NA,NA,NA,NA,NA,NA,NA,NA,NA,NA,136,"M",19,60.0279652224,"Spanish, Hebrew, French","American English","VSH_Exp2","2016_Mar_24_1519",NA
"Recordings/pupu.wav","no","p","p","u","yes","u","pupu","Training","bilabial","TrainingItems",0,87,87,68,NA,NA,NA,NA,NA,NA,NA,NA,NA,NA,136,"M",19,60.0279652224,"Spanish, Hebrew, French","American English","VSH_Exp2","2016_Mar_24_1519",NA
"Recordings/sasu.wav","no","s","s","a","no","u","sasu","Training","alveolar","TrainingItems",0,88,88,52,NA,NA,NA,NA,NA,NA,NA,NA,NA,NA,136,"M",19,60.0279652224,"Spanish, Hebrew, French","American English","VSH_Exp2","2016_Mar_24_1519",NA
"Recordings/titi.wav","no","t","t","i","yes","i","titi","Training","alveolar","TrainingItems",0,89,89,56,NA,NA,NA,NA,NA,NA,NA,NA,NA,NA,136,"M",19,60.0279652224,"Spanish, Hebrew, French","American English","VSH_Exp2","2016_Mar_24_1519",NA
"Recordings/dabu.wav","yes","d","b","a","yes","u","dabu","Training","alveolar","TrainingItems",0,90,90,28,NA,NA,NA,NA,NA,NA,NA,NA,NA,NA,136,"M",19,60.0279652224,"Spanish, Hebrew, French","American English","VSH_Exp2","2016_Mar_24_1519",NA
"Recordings/fusu.wav","no","f","s","u","no","u","fusu","Training","bilabial","TrainingItems",0,91,91,11,NA,NA,NA,NA,NA,NA,NA,NA,NA,NA,136,"M",19,60.0279652224,"Spanish, Hebrew, French","American English","VSH_Exp2","2016_Mar_24_1519",NA
"Recordings/zizu.wav","yes","z","z","i","no","u","zizu","Training","alveolar","TrainingItems",0,92,92,75,NA,NA,NA,NA,NA,NA,NA,NA,NA,NA,136,"M",19,60.0279652224,"Spanish, Hebrew, French","American English","VSH_Exp2","2016_Mar_24_1519",NA
"Recordings/safi.wav","no","s","f","a","no","i","safi","Training","alveolar","TrainingItems",0,93,93,93,NA,NA,NA,NA,NA,NA,NA,NA,NA,NA,136,"M",19,60.0279652224,"Spanish, Hebrew, French","American English","VSH_Exp2","2016_Mar_24_1519",NA
"Recordings/sifa.wav","no","s","f","i","no","a","sifa","Training","alveolar","TrainingItems",0,94,94,45,NA,NA,NA,NA,NA,NA,NA,NA,NA,NA,136,"M",19,60.0279652224,"Spanish, Hebrew, French","American English","VSH_Exp2","2016_Mar_24_1519",NA
"Recordings/biba.wav","yes","b","b","i","yes","a","biba","Training","bilabial","TrainingItems",0,95,95,87,NA,NA,NA,NA,NA,NA,NA,NA,NA,NA,136,"M",19,60.0279652224,"Spanish, Hebrew, French","American English","VSH_Exp2","2016_Mar_24_1519",NA
"Recordings/babu.wav","yes","b","b","a","yes","u","babu","Training","bilabial","TrainingItems",0,96,96,98,NA,NA,NA,NA,NA,NA,NA,NA,NA,NA,136,"M",19,60.0279652224,"Spanish, Hebrew, French","American English","VSH_Exp2","2016_Mar_24_1519",NA
"Recordings/pipu.wav","no","p","p","i","yes","u","pipu","Training","bilabial","TrainingItems",0,97,97,99,NA,NA,NA,NA,NA,NA,NA,NA,NA,NA,136,"M",19,60.0279652224,"Spanish, Hebrew, French","American English","VSH_Exp2","2016_Mar_24_1519",NA
"Recordings/dadu.wav","yes","d","d","a","yes","u","dadu","Training","alveolar","TrainingItems",0,98,98,7,NA,NA,NA,NA,NA,NA,NA,NA,NA,NA,136,"M",19,60.0279652224,"Spanish, Hebrew, French","American English","VSH_Exp2","2016_Mar_24_1519",NA
"Recordings/fafi.wav","no","f","f","a","no","i","fafi","Training","bilabial","TrainingItems",0,99,99,59,NA,NA,NA,NA,NA,NA,NA,NA,NA,NA,136,"M",19,60.0279652224,"Spanish, Hebrew, French","American English","VSH_Exp2","2016_Mar_24_1519",NA
"Recordings/fafa.wav","no","f","f","a","no","a","fafa","Training","bilabial","TrainingItems",1,0,100,1,NA,NA,NA,NA,NA,NA,NA,NA,NA,NA,136,"M",19,60.0279652224,"Spanish, Hebrew, French","American English","VSH_Exp2","2016_Mar_24_1519",NA
"Recordings/dubu.wav","yes","d","b","u","yes","u","dubu","Training","alveolar","TrainingItems",1,1,101,53,NA,NA,NA,NA,NA,NA,NA,NA,NA,NA,136,"M",19,60.0279652224,"Spanish, Hebrew, French","American English","VSH_Exp2","2016_Mar_24_1519",NA
"Recordings/zizi.wav","yes","z","z","i","no","i","zizi","Training","alveolar","TrainingItems",1,2,102,35,NA,NA,NA,NA,NA,NA,NA,NA,NA,NA,136,"M",19,60.0279652224,"Spanish, Hebrew, French","American English","VSH_Exp2","2016_Mar_24_1519",NA
"Recordings/fusi.wav","no","f","s","u","no","i","fusi","Training","bilabial","TrainingItems",1,3,103,78,NA,NA,NA,NA,NA,NA,NA,NA,NA,NA,136,"M",19,60.0279652224,"Spanish, Hebrew, French","American English","VSH_Exp2","2016_Mar_24_1519",NA
"Recordings/fasi.wav","no","f","s","a","no","i","fasi","Training","bilabial","TrainingItems",1,4,104,50,NA,NA,NA,NA,NA,NA,NA,NA,NA,NA,136,"M",19,60.0279652224,"Spanish, Hebrew, French","American English","VSH_Exp2","2016_Mar_24_1519",NA
"Recordings/vuvu.wav","yes","v","v","u","no","u","vuvu","Training","bilabial","TrainingItems",1,5,105,86,NA,NA,NA,NA,NA,NA,NA,NA,NA,NA,136,"M",19,60.0279652224,"Spanish, Hebrew, French","American English","VSH_Exp2","2016_Mar_24_1519",NA
"Recordings/pipa.wav","no","p","p","i","yes","a","pipa","Training","bilabial","TrainingItems",1,6,106,84,NA,NA,NA,NA,NA,NA,NA,NA,NA,NA,136,"M",19,60.0279652224,"Spanish, Hebrew, French","American English","VSH_Exp2","2016_Mar_24_1519",NA
"Recordings/tapi.wav","no","t","p","a","yes","i","tapi","Training","alveolar","TrainingItems",1,7,107,44,NA,NA,NA,NA,NA,NA,NA,NA,NA,NA,136,"M",19,60.0279652224,"Spanish, Hebrew, French","American English","VSH_Exp2","2016_Mar_24_1519",NA
"Recordings/zuzi.wav","yes","z","z","u","no","i","zuzi","Training","alveolar","TrainingItems",1,8,108,95,NA,NA,NA,NA,NA,NA,NA,NA,NA,NA,136,"M",19,60.0279652224,"Spanish, Hebrew, French","American English","VSH_Exp2","2016_Mar_24_1519",NA
"Recordings/duba.wav","yes","d","b","u","yes","a","duba","Training","alveolar","TrainingItems",1,9,109,94,NA,NA,NA,NA,NA,NA,NA,NA,NA,NA,136,"M",19,60.0279652224,"Spanish, Hebrew, French","American English","VSH_Exp2","2016_Mar_24_1519",NA
"Recordings/tata.wav","no","t","t","a","yes","a","tata","Training","alveolar","TrainingItems",1,10,110,92,NA,NA,NA,NA,NA,NA,NA,NA,NA,NA,136,"M",19,60.0279652224,"Spanish, Hebrew, French","American English","VSH_Exp2","2016_Mar_24_1519",NA
"Recordings/sisi.wav","no","s","s","i","no","i","sisi","Training","alveolar","TrainingItems",1,11,111,49,NA,NA,NA,NA,NA,NA,NA,NA,NA,NA,136,"M",19,60.0279652224,"Spanish, Hebrew, French","American English","VSH_Exp2","2016_Mar_24_1519",NA
"Recordings/piti.wav","no","p","t","i","yes","i","piti","Training","bilabial","TrainingItems",1,12,112,26,NA,NA,NA,NA,NA,NA,NA,NA,NA,NA,136,"M",19,60.0279652224,"Spanish, Hebrew, French","American English","VSH_Exp2","2016_Mar_24_1519",NA
"Recordings/dabi.wav","yes","d","b","a","yes","i","dabi","Training","alveolar","TrainingItems",1,13,113,96,NA,NA,NA,NA,NA,NA,NA,NA,NA,NA,136,"M",19,60.0279652224,"Spanish, Hebrew, French","American English","VSH_Exp2","2016_Mar_24_1519",NA
"Recordings/tupu.wav","no","t","p","u","yes","u","tupu","Training","alveolar","TrainingItems",1,14,114,58,NA,NA,NA,NA,NA,NA,NA,NA,NA,NA,136,"M",19,60.0279652224,"Spanish, Hebrew, French","American English","VSH_Exp2","2016_Mar_24_1519",NA
"Recordings/pupu.wav","no","p","p","u","yes","u","pupu","Training","bilabial","TrainingItems",1,15,115,68,NA,NA,NA,NA,NA,NA,NA,NA,NA,NA,136,"M",19,60.0279652224,"Spanish, Hebrew, French","American English","VSH_Exp2","2016_Mar_24_1519",NA
"Recordings/dadu.wav","yes","d","d","a","yes","u","dadu","Training","alveolar","TrainingItems",1,16,116,7,NA,NA,NA,NA,NA,NA,NA,NA,NA,NA,136,"M",19,60.0279652224,"Spanish, Hebrew, French","American English","VSH_Exp2","2016_Mar_24_1519",NA
"Recordings/titu.wav","no","t","t","i","yes","u","titu","Training","alveolar","TrainingItems",1,17,117,88,NA,NA,NA,NA,NA,NA,NA,NA,NA,NA,136,"M",19,60.0279652224,"Spanish, Hebrew, French","American English","VSH_Exp2","2016_Mar_24_1519",NA
"Recordings/tipi.wav","no","t","p","i","yes","i","tipi","Training","alveolar","TrainingItems",1,18,118,42,NA,NA,NA,NA,NA,NA,NA,NA,NA,NA,136,"M",19,60.0279652224,"Spanish, Hebrew, French","American English","VSH_Exp2","2016_Mar_24_1519",NA
"Recordings/tapu.wav","no","t","p","a","yes","u","tapu","Training","alveolar","TrainingItems",1,19,119,16,NA,NA,NA,NA,NA,NA,NA,NA,NA,NA,136,"M",19,60.0279652224,"Spanish, Hebrew, French","American English","VSH_Exp2","2016_Mar_24_1519",NA
"Recordings/bubi.wav","yes","b","b","u","yes","i","bubi","Training","bilabial","TrainingItems",1,20,120,89,NA,NA,NA,NA,NA,NA,NA,NA,NA,NA,136,"M",19,60.0279652224,"Spanish, Hebrew, French","American English","VSH_Exp2","2016_Mar_24_1519",NA
"Recordings/susi.wav","no","s","s","u","no","i","susi","Training","alveolar","TrainingItems",1,21,121,71,NA,NA,NA,NA,NA,NA,NA,NA,NA,NA,136,"M",19,60.0279652224,"Spanish, Hebrew, French","American English","VSH_Exp2","2016_Mar_24_1519",NA
"Recordings/tipu.wav","no","t","p","i","yes","u","tipu","Training","alveolar","TrainingItems",1,22,122,39,NA,NA,NA,NA,NA,NA,NA,NA,NA,NA,136,"M",19,60.0279652224,"Spanish, Hebrew, French","American English","VSH_Exp2","2016_Mar_24_1519",NA
"Recordings/didi.wav","yes","d","d","i","yes","i","didi","Training","alveolar","TrainingItems",1,23,123,41,NA,NA,NA,NA,NA,NA,NA,NA,NA,NA,136,"M",19,60.0279652224,"Spanish, Hebrew, French","American English","VSH_Exp2","2016_Mar_24_1519",NA
"Recordings/baba.wav","yes","b","b","a","yes","a","baba","Training","bilabial","TrainingItems",1,24,124,38,NA,NA,NA,NA,NA,NA,NA,NA,NA,NA,136,"M",19,60.0279652224,"Spanish, Hebrew, French","American English","VSH_Exp2","2016_Mar_24_1519",NA
"Recordings/dubi.wav","yes","d","b","u","yes","i","dubi","Training","alveolar","TrainingItems",1,25,125,81,NA,NA,NA,NA,NA,NA,NA,NA,NA,NA,136,"M",19,60.0279652224,"Spanish, Hebrew, French","American English","VSH_Exp2","2016_Mar_24_1519",NA
"Recordings/pipu.wav","no","p","p","i","yes","u","pipu","Training","bilabial","TrainingItems",1,26,126,99,NA,NA,NA,NA,NA,NA,NA,NA,NA,NA,136,"M",19,60.0279652224,"Spanish, Hebrew, French","American English","VSH_Exp2","2016_Mar_24_1519",NA
"Recordings/tuti.wav","no","t","t","u","yes","i","tuti","Training","alveolar","TrainingItems",1,27,127,70,NA,NA,NA,NA,NA,NA,NA,NA,NA,NA,136,"M",19,60.0279652224,"Spanish, Hebrew, French","American English","VSH_Exp2","2016_Mar_24_1519",NA
"Recordings/sifa.wav","no","s","f","i","no","a","sifa","Training","alveolar","TrainingItems",1,28,128,45,NA,NA,NA,NA,NA,NA,NA,NA,NA,NA,136,"M",19,60.0279652224,"Spanish, Hebrew, French","American English","VSH_Exp2","2016_Mar_24_1519",NA
"Recordings/puti.wav","no","p","t","u","yes","i","puti","Training","bilabial","TrainingItems",1,29,129,65,NA,NA,NA,NA,NA,NA,NA,NA,NA,NA,136,"M",19,60.0279652224,"Spanish, Hebrew, French","American English","VSH_Exp2","2016_Mar_24_1519",NA
"Recordings/pata.wav","no","p","t","a","yes","a","pata","Training","bilabial","TrainingItems",1,30,130,63,NA,NA,NA,NA,NA,NA,NA,NA,NA,NA,136,"M",19,60.0279652224,"Spanish, Hebrew, French","American English","VSH_Exp2","2016_Mar_24_1519",NA
"Recordings/pupi.wav","no","p","p","u","yes","i","pupi","Training","bilabial","TrainingItems",1,31,131,67,NA,NA,NA,NA,NA,NA,NA,NA,NA,NA,136,"M",19,60.0279652224,"Spanish, Hebrew, French","American English","VSH_Exp2","2016_Mar_24_1519",NA
"Recordings/daba.wav","yes","d","b","a","yes","a","daba","Training","alveolar","TrainingItems",1,32,132,54,NA,NA,NA,NA,NA,NA,NA,NA,NA,NA,136,"M",19,60.0279652224,"Spanish, Hebrew, French","American English","VSH_Exp2","2016_Mar_24_1519",NA
"Recordings/dabu.wav","yes","d","b","a","yes","u","dabu","Training","alveolar","TrainingItems",1,33,133,28,NA,NA,NA,NA,NA,NA,NA,NA,NA,NA,136,"M",19,60.0279652224,"Spanish, Hebrew, French","American English","VSH_Exp2","2016_Mar_24_1519",NA
"Recordings/zazi.wav","yes","z","z","a","no","i","zazi","Training","alveolar","TrainingItems",1,34,134,57,NA,NA,NA,NA,NA,NA,NA,NA,NA,NA,136,"M",19,60.0279652224,"Spanish, Hebrew, French","American English","VSH_Exp2","2016_Mar_24_1519",NA
"Recordings/patu.wav","no","p","t","a","yes","u","patu","Training","bilabial","TrainingItems",1,35,135,73,NA,NA,NA,NA,NA,NA,NA,NA,NA,NA,136,"M",19,60.0279652224,"Spanish, Hebrew, French","American English","VSH_Exp2","2016_Mar_24_1519",NA
"Recordings/bada.wav","yes","b","d","a","yes","a","bada","Training","bilabial","TrainingItems",1,36,136,51,NA,NA,NA,NA,NA,NA,NA,NA,NA,NA,136,"M",19,60.0279652224,"Spanish, Hebrew, French","American English","VSH_Exp2","2016_Mar_24_1519",NA
"Recordings/fifu.wav","no","f","f","i","no","u","fifu","Training","bilabial","TrainingItems",1,37,137,90,NA,NA,NA,NA,NA,NA,NA,NA,NA,NA,136,"M",19,60.0279652224,"Spanish, Hebrew, French","American English","VSH_Exp2","2016_Mar_24_1519",NA
"Recordings/dida.wav","yes","d","d","i","yes","a","dida","Training","alveolar","TrainingItems",1,38,138,24,NA,NA,NA,NA,NA,NA,NA,NA,NA,NA,136,"M",19,60.0279652224,"Spanish, Hebrew, French","American English","VSH_Exp2","2016_Mar_24_1519",NA
"Recordings/vivi.wav","yes","v","v","i","no","i","vivi","Training","bilabial","TrainingItems",1,39,139,37,NA,NA,NA,NA,NA,NA,NA,NA,NA,NA,136,"M",19,60.0279652224,"Spanish, Hebrew, French","American English","VSH_Exp2","2016_Mar_24_1519",NA
"Recordings/budi.wav","yes","b","d","u","yes","i","budi","Training","bilabial","TrainingItems",1,40,140,74,NA,NA,NA,NA,NA,NA,NA,NA,NA,NA,136,"M",19,60.0279652224,"Spanish, Hebrew, French","American English","VSH_Exp2","2016_Mar_24_1519",NA
"Recordings/sisa.wav","no","s","s","i","no","a","sisa","Training","alveolar","TrainingItems",1,41,141,72,NA,NA,NA,NA,NA,NA,NA,NA,NA,NA,136,"M",19,60.0279652224,"Spanish, Hebrew, French","American English","VSH_Exp2","2016_Mar_24_1519",NA
"Recordings/vavi.wav","yes","v","v","a","no","i","vavi","Training","bilabial","TrainingItems",1,42,142,14,NA,NA,NA,NA,NA,NA,NA,NA,NA,NA,136,"M",19,60.0279652224,"Spanish, Hebrew, French","American English","VSH_Exp2","2016_Mar_24_1519",NA
"Recordings/biba.wav","yes","b","b","i","yes","a","biba","Training","bilabial","TrainingItems",1,43,143,87,NA,NA,NA,NA,NA,NA,NA,NA,NA,NA,136,"M",19,60.0279652224,"Spanish, Hebrew, French","American English","VSH_Exp2","2016_Mar_24_1519",NA
"Recordings/dada.wav","yes","d","d","a","yes","a","dada","Training","alveolar","TrainingItems",1,44,144,79,NA,NA,NA,NA,NA,NA,NA,NA,NA,NA,136,"M",19,60.0279652224,"Spanish, Hebrew, French","American English","VSH_Exp2","2016_Mar_24_1519",NA
"Recordings/bida.wav","yes","b","d","i","yes","a","bida","Training","bilabial","TrainingItems",1,45,145,33,NA,NA,NA,NA,NA,NA,NA,NA,NA,NA,136,"M",19,60.0279652224,"Spanish, Hebrew, French","American English","VSH_Exp2","2016_Mar_24_1519",NA
"Recordings/babi.wav","yes","b","b","a","yes","i","babi","Training","bilabial","TrainingItems",1,46,146,36,NA,NA,NA,NA,NA,NA,NA,NA,NA,NA,136,"M",19,60.0279652224,"Spanish, Hebrew, French","American English","VSH_Exp2","2016_Mar_24_1519",NA
"Recordings/vava.wav","yes","v","v","a","no","a","vava","Training","bilabial","TrainingItems",1,47,147,32,NA,NA,NA,NA,NA,NA,NA,NA,NA,NA,136,"M",19,60.0279652224,"Spanish, Hebrew, French","American English","VSH_Exp2","2016_Mar_24_1519",NA
"Recordings/badi.wav","yes","b","d","a","yes","i","badi","Training","bilabial","TrainingItems",1,48,148,17,NA,NA,NA,NA,NA,NA,NA,NA,NA,NA,136,"M",19,60.0279652224,"Spanish, Hebrew, French","American English","VSH_Exp2","2016_Mar_24_1519",NA
"Recordings/vuva.wav","yes","v","v","u","no","a","vuva","Training","bilabial","TrainingItems",1,49,149,82,NA,NA,NA,NA,NA,NA,NA,NA,NA,NA,136,"M",19,60.0279652224,"Spanish, Hebrew, French","American English","VSH_Exp2","2016_Mar_24_1519",NA
"Recordings/dadi.wav","yes","d","d","a","yes","i","dadi","Training","alveolar","TrainingItems",1,50,150,40,NA,NA,NA,NA,NA,NA,NA,NA,NA,NA,136,"M",19,60.0279652224,"Spanish, Hebrew, French","American English","VSH_Exp2","2016_Mar_24_1519",NA
"Recordings/pipi.wav","no","p","p","i","yes","i","pipi","Training","bilabial","TrainingItems",1,51,151,62,NA,NA,NA,NA,NA,NA,NA,NA,NA,NA,136,"M",19,60.0279652224,"Spanish, Hebrew, French","American English","VSH_Exp2","2016_Mar_24_1519",NA
"Recordings/dudu.wav","yes","d","d","u","yes","u","dudu","Training","alveolar","TrainingItems",1,52,152,55,NA,NA,NA,NA,NA,NA,NA,NA,NA,NA,136,"M",19,60.0279652224,"Spanish, Hebrew, French","American English","VSH_Exp2","2016_Mar_24_1519",NA
"Recordings/tupi.wav","no","t","p","u","yes","i","tupi","Training","alveolar","TrainingItems",1,53,153,22,NA,NA,NA,NA,NA,NA,NA,NA,NA,NA,136,"M",19,60.0279652224,"Spanish, Hebrew, French","American English","VSH_Exp2","2016_Mar_24_1519",NA
"Recordings/tapa.wav","no","t","p","a","yes","a","tapa","Training","alveolar","TrainingItems",1,54,154,25,NA,NA,NA,NA,NA,NA,NA,NA,NA,NA,136,"M",19,60.0279652224,"Spanish, Hebrew, French","American English","VSH_Exp2","2016_Mar_24_1519",NA
"Recordings/pati.wav","no","p","t","a","yes","i","pati","Training","bilabial","TrainingItems",1,55,155,61,NA,NA,NA,NA,NA,NA,NA,NA,NA,NA,136,"M",19,60.0279652224,"Spanish, Hebrew, French","American English","VSH_Exp2","2016_Mar_24_1519",NA
"Recordings/sifu.wav","no","s","f","i","no","u","sifu","Training","alveolar","TrainingItems",1,56,156,19,NA,NA,NA,NA,NA,NA,NA,NA,NA,NA,136,"M",19,60.0279652224,"Spanish, Hebrew, French","American English","VSH_Exp2","2016_Mar_24_1519",NA
"Recordings/babu.wav","yes","b","b","a","yes","u","babu","Training","bilabial","TrainingItems",1,57,157,98,NA,NA,NA,NA,NA,NA,NA,NA,NA,NA,136,"M",19,60.0279652224,"Spanish, Hebrew, French","American English","VSH_Exp2","2016_Mar_24_1519",NA
"Recordings/zuza.wav","yes","z","z","u","no","a","zuza","Training","alveolar","TrainingItems",1,58,158,85,NA,NA,NA,NA,NA,NA,NA,NA,NA,NA,136,"M",19,60.0279652224,"Spanish, Hebrew, French","American English","VSH_Exp2","2016_Mar_24_1519",NA
"Recordings/tuta.wav","no","t","t","u","yes","a","tuta","Training","alveolar","TrainingItems",1,59,159,97,NA,NA,NA,NA,NA,NA,NA,NA,NA,NA,136,"M",19,60.0279652224,"Spanish, Hebrew, French","American English","VSH_Exp2","2016_Mar_24_1519",NA
"Recordings/dibi.wav","yes","d","b","i","yes","i","dibi","Training","alveolar","TrainingItems",1,60,160,43,NA,NA,NA,NA,NA,NA,NA,NA,NA,NA,136,"M",19,60.0279652224,"Spanish, Hebrew, French","American English","VSH_Exp2","2016_Mar_24_1519",NA
"Recordings/sisu.wav","no","s","s","i","no","u","sisu","Training","alveolar","TrainingItems",1,61,161,76,NA,NA,NA,NA,NA,NA,NA,NA,NA,NA,136,"M",19,60.0279652224,"Spanish, Hebrew, French","American English","VSH_Exp2","2016_Mar_24_1519",NA
"Recordings/badu.wav","yes","b","d","a","yes","u","badu","Training","bilabial","TrainingItems",1,62,162,5,NA,NA,NA,NA,NA,NA,NA,NA,NA,NA,136,"M",19,60.0279652224,"Spanish, Hebrew, French","American English","VSH_Exp2","2016_Mar_24_1519",NA
"Recordings/zizu.wav","yes","z","z","i","no","u","zizu","Training","alveolar","TrainingItems",1,63,163,75,NA,NA,NA,NA,NA,NA,NA,NA,NA,NA,136,"M",19,60.0279652224,"Spanish, Hebrew, French","American English","VSH_Exp2","2016_Mar_24_1519",NA
"Recordings/tita.wav","no","t","t","i","yes","a","tita","Training","alveolar","TrainingItems",1,64,164,21,NA,NA,NA,NA,NA,NA,NA,NA,NA,NA,136,"M",19,60.0279652224,"Spanish, Hebrew, French","American English","VSH_Exp2","2016_Mar_24_1519",NA
"Recordings/duda.wav","yes","d","d","u","yes","a","duda","Training","alveolar","TrainingItems",1,65,165,8,NA,NA,NA,NA,NA,NA,NA,NA,NA,NA,136,"M",19,60.0279652224,"Spanish, Hebrew, French","American English","VSH_Exp2","2016_Mar_24_1519",NA
"Recordings/pitu.wav","no","p","t","i","yes","u","pitu","Training","bilabial","TrainingItems",1,66,166,64,NA,NA,NA,NA,NA,NA,NA,NA,NA,NA,136,"M",19,60.0279652224,"Spanish, Hebrew, French","American English","VSH_Exp2","2016_Mar_24_1519",NA
"Recordings/fifa.wav","no","f","f","i","no","a","fifa","Training","bilabial","TrainingItems",1,67,167,3,NA,NA,NA,NA,NA,NA,NA,NA,NA,NA,136,"M",19,60.0279652224,"Spanish, Hebrew, French","American English","VSH_Exp2","2016_Mar_24_1519",NA
"Recordings/viva.wav","yes","v","v","i","no","a","viva","Training","bilabial","TrainingItems",1,68,168,47,NA,NA,NA,NA,NA,NA,NA,NA,NA,NA,136,"M",19,60.0279652224,"Spanish, Hebrew, French","American English","VSH_Exp2","2016_Mar_24_1519",NA
"Recordings/puta.wav","no","p","t","u","yes","a","puta","Training","bilabial","TrainingItems",1,69,169,80,NA,NA,NA,NA,NA,NA,NA,NA,NA,NA,136,"M",19,60.0279652224,"Spanish, Hebrew, French","American English","VSH_Exp2","2016_Mar_24_1519",NA
"Recordings/fusa.wav","no","f","s","u","no","a","fusa","Training","bilabial","TrainingItems",1,70,170,4,NA,NA,NA,NA,NA,NA,NA,NA,NA,NA,136,"M",19,60.0279652224,"Spanish, Hebrew, French","American English","VSH_Exp2","2016_Mar_24_1519",NA
"Recordings/tipa.wav","no","t","p","i","yes","a","tipa","Training","alveolar","TrainingItems",1,71,171,30,NA,NA,NA,NA,NA,NA,NA,NA,NA,NA,136,"M",19,60.0279652224,"Spanish, Hebrew, French","American English","VSH_Exp2","2016_Mar_24_1519",NA
"Recordings/bibi.wav","yes","b","b","i","yes","i","bibi","Training","bilabial","TrainingItems",1,72,172,29,NA,NA,NA,NA,NA,NA,NA,NA,NA,NA,136,"M",19,60.0279652224,"Spanish, Hebrew, French","American English","VSH_Exp2","2016_Mar_24_1519",NA
"Recordings/pupa.wav","no","p","p","u","yes","a","pupa","Training","bilabial","TrainingItems",1,73,173,34,NA,NA,NA,NA,NA,NA,NA,NA,NA,NA,136,"M",19,60.0279652224,"Spanish, Hebrew, French","American English","VSH_Exp2","2016_Mar_24_1519",NA
"Recordings/didu.wav","yes","d","d","i","yes","u","didu","Training","alveolar","TrainingItems",1,74,174,83,NA,NA,NA,NA,NA,NA,NA,NA,NA,NA,136,"M",19,60.0279652224,"Spanish, Hebrew, French","American English","VSH_Exp2","2016_Mar_24_1519",NA
"Recordings/dibu.wav","yes","d","b","i","yes","u","dibu","Training","alveolar","TrainingItems",1,75,175,9,NA,NA,NA,NA,NA,NA,NA,NA,NA,NA,136,"M",19,60.0279652224,"Spanish, Hebrew, French","American English","VSH_Exp2","2016_Mar_24_1519",NA
"Recordings/safa.wav","no","s","f","a","no","a","safa","Training","alveolar","TrainingItems",1,76,176,31,NA,NA,NA,NA,NA,NA,NA,NA,NA,NA,136,"M",19,60.0279652224,"Spanish, Hebrew, French","American English","VSH_Exp2","2016_Mar_24_1519",NA
"Recordings/papu.wav","no","p","p","a","yes","u","papu","Training","bilabial","TrainingItems",1,77,177,91,NA,NA,NA,NA,NA,NA,NA,NA,NA,NA,136,"M",19,60.0279652224,"Spanish, Hebrew, French","American English","VSH_Exp2","2016_Mar_24_1519",NA
"Recordings/zaza.wav","yes","z","z","a","no","a","zaza","Training","alveolar","TrainingItems",1,78,178,27,NA,NA,NA,NA,NA,NA,NA,NA,NA,NA,136,"M",19,60.0279652224,"Spanish, Hebrew, French","American English","VSH_Exp2","2016_Mar_24_1519",NA
"Recordings/susa.wav","no","s","s","u","no","a","susa","Training","alveolar","TrainingItems",1,79,179,48,NA,NA,NA,NA,NA,NA,NA,NA,NA,NA,136,"M",19,60.0279652224,"Spanish, Hebrew, French","American English","VSH_Exp2","2016_Mar_24_1519",NA
"Recordings/fisu.wav","no","f","s","i","no","u","fisu","Training","bilabial","TrainingItems",1,80,180,12,NA,NA,NA,NA,NA,NA,NA,NA,NA,NA,136,"M",19,60.0279652224,"Spanish, Hebrew, French","American English","VSH_Exp2","2016_Mar_24_1519",NA
"Recordings/ziza.wav","yes","z","z","i","no","a","ziza","Training","alveolar","TrainingItems",1,81,181,15,NA,NA,NA,NA,NA,NA,NA,NA,NA,NA,136,"M",19,60.0279652224,"Spanish, Hebrew, French","American English","VSH_Exp2","2016_Mar_24_1519",NA
"Recordings/vuvi.wav","yes","v","v","u","no","i","vuvi","Training","bilabial","TrainingItems",1,82,182,6,NA,NA,NA,NA,NA,NA,NA,NA,NA,NA,136,"M",19,60.0279652224,"Spanish, Hebrew, French","American English","VSH_Exp2","2016_Mar_24_1519",NA
"Recordings/sasa.wav","no","s","s","a","no","a","sasa","Training","alveolar","TrainingItems",1,83,183,18,NA,NA,NA,NA,NA,NA,NA,NA,NA,NA,136,"M",19,60.0279652224,"Spanish, Hebrew, French","American English","VSH_Exp2","2016_Mar_24_1519",NA
"Recordings/diba.wav","yes","d","b","i","yes","a","diba","Training","alveolar","TrainingItems",1,84,184,13,NA,NA,NA,NA,NA,NA,NA,NA,NA,NA,136,"M",19,60.0279652224,"Spanish, Hebrew, French","American English","VSH_Exp2","2016_Mar_24_1519",NA
"Recordings/sasi.wav","no","s","s","a","no","i","sasi","Training","alveolar","TrainingItems",1,85,185,2,NA,NA,NA,NA,NA,NA,NA,NA,NA,NA,136,"M",19,60.0279652224,"Spanish, Hebrew, French","American English","VSH_Exp2","2016_Mar_24_1519",NA
"Recordings/fusu.wav","no","f","s","u","no","u","fusu","Training","bilabial","TrainingItems",1,86,186,11,NA,NA,NA,NA,NA,NA,NA,NA,NA,NA,136,"M",19,60.0279652224,"Spanish, Hebrew, French","American English","VSH_Exp2","2016_Mar_24_1519",NA
"Recordings/fasu.wav","no","f","s","a","no","u","fasu","Training","bilabial","TrainingItems",1,87,187,66,NA,NA,NA,NA,NA,NA,NA,NA,NA,NA,136,"M",19,60.0279652224,"Spanish, Hebrew, French","American English","VSH_Exp2","2016_Mar_24_1519",NA
"Recordings/fafi.wav","no","f","f","a","no","i","fafi","Training","bilabial","TrainingItems",1,88,188,59,NA,NA,NA,NA,NA,NA,NA,NA,NA,NA,136,"M",19,60.0279652224,"Spanish, Hebrew, French","American English","VSH_Exp2","2016_Mar_24_1519",NA
"Recordings/tutu.wav","no","t","t","u","yes","u","tutu","Training","alveolar","TrainingItems",1,89,189,10,NA,NA,NA,NA,NA,NA,NA,NA,NA,NA,136,"M",19,60.0279652224,"Spanish, Hebrew, French","American English","VSH_Exp2","2016_Mar_24_1519",NA
"Recordings/fasa.wav","no","f","s","a","no","a","fasa","Training","bilabial","TrainingItems",1,90,190,20,NA,NA,NA,NA,NA,NA,NA,NA,NA,NA,136,"M",19,60.0279652224,"Spanish, Hebrew, French","American English","VSH_Exp2","2016_Mar_24_1519",NA
"Recordings/sufa.wav","no","s","f","u","no","a","sufa","Training","alveolar","TrainingItems",1,91,191,69,NA,NA,NA,NA,NA,NA,NA,NA,NA,NA,136,"M",19,60.0279652224,"Spanish, Hebrew, French","American English","VSH_Exp2","2016_Mar_24_1519",NA
"Recordings/buba.wav","yes","b","b","u","yes","a","buba","Training","bilabial","TrainingItems",1,92,192,23,NA,NA,NA,NA,NA,NA,NA,NA,NA,NA,136,"M",19,60.0279652224,"Spanish, Hebrew, French","American English","VSH_Exp2","2016_Mar_24_1519",NA
"Recordings/sufi.wav","no","s","f","u","no","i","sufi","Training","alveolar","TrainingItems",1,93,193,46,NA,NA,NA,NA,NA,NA,NA,NA,NA,NA,136,"M",19,60.0279652224,"Spanish, Hebrew, French","American English","VSH_Exp2","2016_Mar_24_1519",NA
"Recordings/safi.wav","no","s","f","a","no","i","safi","Training","alveolar","TrainingItems",1,94,194,93,NA,NA,NA,NA,NA,NA,NA,NA,NA,NA,136,"M",19,60.0279652224,"Spanish, Hebrew, French","American English","VSH_Exp2","2016_Mar_24_1519",NA
"Recordings/fafu.wav","no","f","f","a","no","u","fafu","Training","bilabial","TrainingItems",1,95,195,0,NA,NA,NA,NA,NA,NA,NA,NA,NA,NA,136,"M",19,60.0279652224,"Spanish, Hebrew, French","American English","VSH_Exp2","2016_Mar_24_1519",NA
"Recordings/papi.wav","no","p","p","a","yes","i","papi","Training","bilabial","TrainingItems",1,96,196,77,NA,NA,NA,NA,NA,NA,NA,NA,NA,NA,136,"M",19,60.0279652224,"Spanish, Hebrew, French","American English","VSH_Exp2","2016_Mar_24_1519",NA
"Recordings/dudi.wav","yes","d","d","u","yes","i","dudi","Training","alveolar","TrainingItems",1,97,197,60,NA,NA,NA,NA,NA,NA,NA,NA,NA,NA,136,"M",19,60.0279652224,"Spanish, Hebrew, French","American English","VSH_Exp2","2016_Mar_24_1519",NA
"Recordings/sasu.wav","no","s","s","a","no","u","sasu","Training","alveolar","TrainingItems",1,98,198,52,NA,NA,NA,NA,NA,NA,NA,NA,NA,NA,136,"M",19,60.0279652224,"Spanish, Hebrew, French","American English","VSH_Exp2","2016_Mar_24_1519",NA
"Recordings/titi.wav","no","t","t","i","yes","i","titi","Training","alveolar","TrainingItems",1,99,199,56,NA,NA,NA,NA,NA,NA,NA,NA,NA,NA,136,"M",19,60.0279652224,"Spanish, Hebrew, French","American English","VSH_Exp2","2016_Mar_24_1519",NA
NA,NA,NA,NA,NA,NA,NA,NA,NA,NA,NA,NA,NA,NA,NA,NA,NA,NA,NA,NA,NA,"space",1.81983304024,NA,NA,136,"M",19,60.0279652224,"Spanish, Hebrew, French","American English","VSH_Exp2","2016_Mar_24_1519",NA
"Recordings/tutu.wav","no","t","t","u","yes","u","tutu","Test","alveolar","OldTestStimuli",NA,NA,NA,NA,0,0,0,5,NA,NA,NA,NA,"Yes",5.591,136,"M",19,60.0279652224,"Spanish, Hebrew, French","American English","VSH_Exp2","2016_Mar_24_1519",NA
"Recordings/pisi.wav","no","p","s","i","yes","i","pisi","Controls","bilabial","VoicingControls",NA,NA,NA,NA,0,1,1,43,NA,NA,NA,NA,"No",2.488,136,"M",19,60.0279652224,"Spanish, Hebrew, French","American English","VSH_Exp2","2016_Mar_24_1519",NA
"Recordings/fida.wav","no","f","d","i","no","a","fida","Controls","bilabial","NoPatternControls",NA,NA,NA,NA,0,2,2,51,NA,NA,NA,NA,"No",1.47,136,"M",19,60.0279652224,"Spanish, Hebrew, French","American English","VSH_Exp2","2016_Mar_24_1519",NA
"Recordings/tuzi.wav","no","t","z","u","yes","i","tuzi","Controls","alveolar","NoPatternControls",NA,NA,NA,NA,0,3,3,52,NA,NA,NA,NA,"No",0.82,136,"M",19,60.0279652224,"Spanish, Hebrew, French","American English","VSH_Exp2","2016_Mar_24_1519",NA
"Recordings/vaza.wav","yes","v","z","a","no","a","vaza","Test","bilabial","NewConsTestStimuli",NA,NA,NA,NA,0,4,4,17,NA,NA,NA,NA,"Yes",2.204,136,"M",19,60.0279652224,"Spanish, Hebrew, French","American English","VSH_Exp2","2016_Mar_24_1519",NA
"Recordings/zuvi.wav","yes","z","v","u","no","i","zuvi","Test","alveolar","NewConsTestStimuli",NA,NA,NA,NA,0,5,5,14,NA,NA,NA,NA,"Yes",0.92,136,"M",19,60.0279652224,"Spanish, Hebrew, French","American English","VSH_Exp2","2016_Mar_24_1519",NA
"Recordings/sifi.wav","no","s","f","i","no","i","sifi","Test","alveolar","NewWordTestStimuli",NA,NA,NA,NA,0,6,6,29,NA,NA,NA,NA,"Yes",0.618,136,"M",19,60.0279652224,"Spanish, Hebrew, French","American English","VSH_Exp2","2016_Mar_24_1519",NA
"Recordings/fiva.wav","no","f","v","i","no","a","fiva","Controls","bilabial","StopControls",NA,NA,NA,NA,0,7,7,31,NA,NA,NA,NA,"No",2.005,136,"M",19,60.0279652224,"Spanish, Hebrew, French","American English","VSH_Exp2","2016_Mar_24_1519",NA
"Recordings/tidi.wav","no","t","d","i","yes","i","tidi","Controls","alveolar","StopControls",NA,NA,NA,NA,0,8,8,32,NA,NA,NA,NA,"No",2.754,136,"M",19,60.0279652224,"Spanish, Hebrew, French","American English","VSH_Exp2","2016_Mar_24_1519",NA
"Recordings/piba.wav","no","p","b","i","yes","a","piba","Controls","bilabial","StopControls",NA,NA,NA,NA,0,9,9,34,NA,NA,NA,NA,"Yes",1.821,136,"M",19,60.0279652224,"Spanish, Hebrew, French","American English","VSH_Exp2","2016_Mar_24_1519",NA
"Recordings/vazi.wav","yes","v","z","a","no","i","vazi","Test","bilabial","NewConsTestStimuli",NA,NA,NA,NA,0,10,10,15,NA,NA,NA,NA,"Yes",0.936,136,"M",19,60.0279652224,"Spanish, Hebrew, French","American English","VSH_Exp2","2016_Mar_24_1519",NA
"Recordings/bubu.wav","yes","b","b","u","yes","u","bubu","Test","bilabial","NewWordTestStimuli",NA,NA,NA,NA,0,11,11,27,NA,NA,NA,NA,"Yes",0.553,136,"M",19,60.0279652224,"Spanish, Hebrew, French","American English","VSH_Exp2","2016_Mar_24_1519",NA
"Recordings/tasi.wav","no","t","s","a","yes","i","tasi","Controls","alveolar","VoicingControls",NA,NA,NA,NA,0,12,12,42,NA,NA,NA,NA,"No",1.538,136,"M",19,60.0279652224,"Spanish, Hebrew, French","American English","VSH_Exp2","2016_Mar_24_1519",NA
"Recordings/buta.wav","yes","b","t","u","yes","a","buta","Controls","bilabial","StopControls",NA,NA,NA,NA,0,13,13,35,NA,NA,NA,NA,"Yes",1.521,136,"M",19,60.0279652224,"Spanish, Hebrew, French","American English","VSH_Exp2","2016_Mar_24_1519",NA
"Recordings/fiti.wav","no","f","t","i","no","i","fiti","Controls","bilabial","VoicingControls",NA,NA,NA,NA,0,14,14,40,NA,NA,NA,NA,"No",1.187,136,"M",19,60.0279652224,"Spanish, Hebrew, French","American English","VSH_Exp2","2016_Mar_24_1519",NA
"Recordings/dizi.wav","yes","d","z","i","yes","i","dizi","Controls","alveolar","VoicingControls",NA,NA,NA,NA,0,15,15,48,NA,NA,NA,NA,"No",1.42,136,"M",19,60.0279652224,"Spanish, Hebrew, French","American English","VSH_Exp2","2016_Mar_24_1519",NA
"Recordings/fifu.wav","no","f","f","i","no","u","fifu","Test","bilabial","OldTestStimuli",NA,NA,NA,NA,0,16,16,6,NA,NA,NA,NA,"Yes",0.902,136,"M",19,60.0279652224,"Spanish, Hebrew, French","American English","VSH_Exp2","2016_Mar_24_1519",NA
"Recordings/buza.wav","yes","b","z","u","yes","a","buza","Controls","bilabial","VoicingControls",NA,NA,NA,NA,0,17,17,45,NA,NA,NA,NA,"Yes",0.536,136,"M",19,60.0279652224,"Spanish, Hebrew, French","American English","VSH_Exp2","2016_Mar_24_1519",NA
"Recordings/pidi.wav","no","p","d","i","yes","i","pidi","Controls","bilabial","StopControls",NA,NA,NA,NA,0,18,18,33,NA,NA,NA,NA,"Yes",0.636,136,"M",19,60.0279652224,"Spanish, Hebrew, French","American English","VSH_Exp2","2016_Mar_24_1519",NA
"Recordings/vava.wav","yes","v","v","a","no","a","vava","Test","bilabial","OldTestStimuli",NA,NA,NA,NA,0,19,19,1,NA,NA,NA,NA,"Yes",0.718,136,"M",19,60.0279652224,"Spanish, Hebrew, French","American English","VSH_Exp2","2016_Mar_24_1519",NA
"Recordings/fudu.wav","no","f","d","u","no","u","fudu","Controls","bilabial","NoPatternControls",NA,NA,NA,NA,0,20,20,50,NA,NA,NA,NA,"Yes",0.553,136,"M",19,60.0279652224,"Spanish, Hebrew, French","American English","VSH_Exp2","2016_Mar_24_1519",NA
"Recordings/vizu.wav","yes","v","z","i","no","u","vizu","Test","bilabial","NewConsTestStimuli",NA,NA,NA,NA,0,21,21,10,NA,NA,NA,NA,"Yes",0.787,136,"M",19,60.0279652224,"Spanish, Hebrew, French","American English","VSH_Exp2","2016_Mar_24_1519",NA
"Recordings/fufi.wav","no","f","f","u","no","i","fufi","Test","bilabial","NewWordTestStimuli",NA,NA,NA,NA,0,22,22,23,NA,NA,NA,NA,"Yes",0.721,136,"M",19,60.0279652224,"Spanish, Hebrew, French","American English","VSH_Exp2","2016_Mar_24_1519",NA
"Recordings/bidu.wav","yes","b","d","i","yes","u","bidu","Test","bilabial","NewWordTestStimuli",NA,NA,NA,NA,0,23,23,25,NA,NA,NA,NA,"Yes",0.669,136,"M",19,60.0279652224,"Spanish, Hebrew, French","American English","VSH_Exp2","2016_Mar_24_1519",NA
"Recordings/dapu.wav","yes","d","p","a","yes","u","dapu","Controls","alveolar","StopControls",NA,NA,NA,NA,0,24,24,37,NA,NA,NA,NA,"No",0.988,136,"M",19,60.0279652224,"Spanish, Hebrew, French","American English","VSH_Exp2","2016_Mar_24_1519",NA
"Recordings/tati.wav","no","t","t","a","yes","i","tati","Test","alveolar","NewWordTestStimuli",NA,NA,NA,NA,0,25,25,28,NA,NA,NA,NA,"Yes",1.187,136,"M",19,60.0279652224,"Spanish, Hebrew, French","American English","VSH_Exp2","2016_Mar_24_1519",NA
"Recordings/zuzu.wav","yes","z","z","u","no","u","zuzu","Test","alveolar","NewWordTestStimuli",NA,NA,NA,NA,0,26,26,21,NA,NA,NA,NA,"Yes",0.552,136,"M",19,60.0279652224,"Spanish, Hebrew, French","American English","VSH_Exp2","2016_Mar_24_1519",NA
"Recordings/vavi.wav","yes","v","v","a","no","i","vavi","Test","bilabial","OldTestStimuli",NA,NA,NA,NA,0,27,27,8,NA,NA,NA,NA,"Yes",0.603,136,"M",19,60.0279652224,"Spanish, Hebrew, French","American English","VSH_Exp2","2016_Mar_24_1519",NA
"Recordings/fivu.wav","no","f","v","i","no","u","fivu","Controls","bilabial","StopControls",NA,NA,NA,NA,0,28,28,30,NA,NA,NA,NA,"No",1.771,136,"M",19,60.0279652224,"Spanish, Hebrew, French","American English","VSH_Exp2","2016_Mar_24_1519",NA
"Recordings/puzi.wav","no","p","z","u","yes","i","puzi","Controls","bilabial","NoPatternControls",NA,NA,NA,NA,0,29,29,53,NA,NA,NA,NA,"No",1.002,136,"M",19,60.0279652224,"Spanish, Hebrew, French","American English","VSH_Exp2","2016_Mar_24_1519",NA
"Recordings/bida.wav","yes","b","d","i","yes","a","bida","Test","bilabial","OldTestStimuli",NA,NA,NA,NA,0,30,30,0,NA,NA,NA,NA,"No",0.836,136,"M",19,60.0279652224,"Spanish, Hebrew, French","American English","VSH_Exp2","2016_Mar_24_1519",NA
"Recordings/disa.wav","yes","d","s","i","yes","a","disa","Controls","alveolar","NoPatternControls",NA,NA,NA,NA,0,31,31,57,NA,NA,NA,NA,"No",0.887,136,"M",19,60.0279652224,"Spanish, Hebrew, French","American English","VSH_Exp2","2016_Mar_24_1519",NA
"Recordings/diti.wav","yes","d","t","i","yes","i","diti","Controls","alveolar","StopControls",NA,NA,NA,NA,0,32,32,38,NA,NA,NA,NA,"No",1.887,136,"M",19,60.0279652224,"Spanish, Hebrew, French","American English","VSH_Exp2","2016_Mar_24_1519",NA
"Recordings/vizi.wav","yes","v","z","i","no","i","vizi","Test","bilabial","NewConsTestStimuli",NA,NA,NA,NA,0,33,33,11,NA,NA,NA,NA,"No",1.287,136,"M",19,60.0279652224,"Spanish, Hebrew, French","American English","VSH_Exp2","2016_Mar_24_1519",NA
"Recordings/fipu.wav","no","f","p","i","no","u","fipu","Controls","bilabial","VoicingControls",NA,NA,NA,NA,0,34,34,41,NA,NA,NA,NA,"No",0.954,136,"M",19,60.0279652224,"Spanish, Hebrew, French","American English","VSH_Exp2","2016_Mar_24_1519",NA
"Recordings/zazu.wav","yes","z","z","a","no","u","zazu","Test","alveolar","NewWordTestStimuli",NA,NA,NA,NA,0,35,35,24,NA,NA,NA,NA,"Yes",0.653,136,"M",19,60.0279652224,"Spanish, Hebrew, French","American English","VSH_Exp2","2016_Mar_24_1519",NA
"Recordings/pifa.wav","no","p","f","i","yes","a","pifa","Controls","bilabial","VoicingControls",NA,NA,NA,NA,0,36,36,44,NA,NA,NA,NA,"Yes",0.552,136,"M",19,60.0279652224,"Spanish, Hebrew, French","American English","VSH_Exp2","2016_Mar_24_1519",NA
"Recordings/puzu.wav","no","p","z","u","yes","u","puzu","Controls","bilabial","NoPatternControls",NA,NA,NA,NA,0,37,37,54,NA,NA,NA,NA,"No",1.337,136,"M",19,60.0279652224,"Spanish, Hebrew, French","American English","VSH_Exp2","2016_Mar_24_1519",NA
"Recordings/dusi.wav","yes","d","s","u","yes","i","dusi","Controls","alveolar","NoPatternControls",NA,NA,NA,NA,0,38,38,58,NA,NA,NA,NA,"No",0.636,136,"M",19,60.0279652224,"Spanish, Hebrew, French","American English","VSH_Exp2","2016_Mar_24_1519",NA
"Recordings/vivi.wav","yes","v","v","i","no","i","vivi","Test","bilabial","OldTestStimuli",NA,NA,NA,NA,0,39,39,4,NA,NA,NA,NA,"Yes",1.003,136,"M",19,60.0279652224,"Spanish, Hebrew, French","American English","VSH_Exp2","2016_Mar_24_1519",NA
"Recordings/bisa.wav","yes","b","s","i","yes","a","bisa","Controls","bilabial","NoPatternControls",NA,NA,NA,NA,0,40,40,55,NA,NA,NA,NA,"Yes",0.836,136,"M",19,60.0279652224,"Spanish, Hebrew, French","American English","VSH_Exp2","2016_Mar_24_1519",NA
"Recordings/zavu.wav","yes","z","v","a","no","u","zavu","Test","alveolar","NewConsTestStimuli",NA,NA,NA,NA,0,41,41,16,NA,NA,NA,NA,"Yes",0.903,136,"M",19,60.0279652224,"Spanish, Hebrew, French","American English","VSH_Exp2","2016_Mar_24_1519",NA
"Recordings/ziva.wav","yes","z","v","i","no","a","ziva","Test","alveolar","NewConsTestStimuli",NA,NA,NA,NA,0,42,42,18,NA,NA,NA,NA,"No",2.022,136,"M",19,60.0279652224,"Spanish, Hebrew, French","American English","VSH_Exp2","2016_Mar_24_1519",NA
"Recordings/zuva.wav","yes","z","v","u","no","a","zuva","Test","alveolar","NewConsTestStimuli",NA,NA,NA,NA,0,43,43,19,NA,NA,NA,NA,"No",1.604,136,"M",19,60.0279652224,"Spanish, Hebrew, French","American English","VSH_Exp2","2016_Mar_24_1519",NA
"Recordings/zifa.wav","yes","z","f","i","no","a","zifa","Controls","alveolar","StopControls",NA,NA,NA,NA,0,44,44,36,NA,NA,NA,NA,"No",0.82,136,"M",19,60.0279652224,"Spanish, Hebrew, French","American English","VSH_Exp2","2016_Mar_24_1519",NA
"Recordings/fufa.wav","no","f","f","u","no","a","fufa","Test","bilabial","NewWordTestStimuli",NA,NA,NA,NA,0,45,45,20,NA,NA,NA,NA,"Yes",0.837,136,"M",19,60.0279652224,"Spanish, Hebrew, French","American English","VSH_Exp2","2016_Mar_24_1519",NA
"Recordings/ziba.wav","yes","z","b","i","no","a","ziba","Controls","alveolar","VoicingControls",NA,NA,NA,NA,0,46,46,46,NA,NA,NA,NA,"No",1.237,136,"M",19,60.0279652224,"Spanish, Hebrew, French","American English","VSH_Exp2","2016_Mar_24_1519",NA
"Recordings/tita.wav","no","t","t","i","yes","a","tita","Test","alveolar","OldTestStimuli",NA,NA,NA,NA,0,47,47,7,NA,NA,NA,NA,"Yes",1.254,136,"M",19,60.0279652224,"Spanish, Hebrew, French","American English","VSH_Exp2","2016_Mar_24_1519",NA
"Recordings/buba.wav","yes","b","b","u","yes","a","buba","Test","bilabial","OldTestStimuli",NA,NA,NA,NA,0,48,48,9,NA,NA,NA,NA,"Yes",0.486,136,"M",19,60.0279652224,"Spanish, Hebrew, French","American English","VSH_Exp2","2016_Mar_24_1519",NA
"Recordings/susu.wav","no","s","s","u","no","u","susu","Test","alveolar","NewWordTestStimuli",NA,NA,NA,NA,0,49,49,22,NA,NA,NA,NA,"Yes",0.886,136,"M",19,60.0279652224,"Spanish, Hebrew, French","American English","VSH_Exp2","2016_Mar_24_1519",NA
"Recordings/difa.wav","yes","d","f","i","yes","a","difa","Controls","alveolar","NoPatternControls",NA,NA,NA,NA,0,50,50,59,NA,NA,NA,NA,"No",1.22,136,"M",19,60.0279652224,"Spanish, Hebrew, French","American English","VSH_Exp2","2016_Mar_24_1519",NA
"Recordings/pata.wav","no","p","t","a","yes","a","pata","Test","bilabial","OldTestStimuli",NA,NA,NA,NA,0,51,51,2,NA,NA,NA,NA,"No",0.738,136,"M",19,60.0279652224,"Spanish, Hebrew, French","American English","VSH_Exp2","2016_Mar_24_1519",NA
"Recordings/zuvu.wav","yes","z","v","u","no","u","zuvu","Test","alveolar","NewConsTestStimuli",NA,NA,NA,NA,0,52,52,13,NA,NA,NA,NA,"Yes",1.07,136,"M",19,60.0279652224,"Spanish, Hebrew, French","American English","VSH_Exp2","2016_Mar_24_1519",NA
"Recordings/datu.wav","yes","d","t","a","yes","u","datu","Controls","alveolar","StopControls",NA,NA,NA,NA,0,53,53,39,NA,NA,NA,NA,"Yes",0.952,136,"M",19,60.0279652224,"Spanish, Hebrew, French","American English","VSH_Exp2","2016_Mar_24_1519",NA
"Recordings/zavi.wav","yes","z","v","a","no","i","zavi","Test","alveolar","NewConsTestStimuli",NA,NA,NA,NA,0,54,54,12,NA,NA,NA,NA,"Yes",1.035,136,"M",19,60.0279652224,"Spanish, Hebrew, French","American English","VSH_Exp2","2016_Mar_24_1519",NA
"Recordings/dadi.wav","yes","d","d","a","yes","i","dadi","Test","alveolar","OldTestStimuli",NA,NA,NA,NA,0,55,55,3,NA,NA,NA,NA,"No",0.986,136,"M",19,60.0279652224,"Spanish, Hebrew, French","American English","VSH_Exp2","2016_Mar_24_1519",NA
"Recordings/davu.wav","yes","d","v","a","yes","u","davu","Controls","alveolar","VoicingControls",NA,NA,NA,NA,0,56,56,47,NA,NA,NA,NA,"No",0.753,136,"M",19,60.0279652224,"Spanish, Hebrew, French","American English","VSH_Exp2","2016_Mar_24_1519",NA
"Recordings/tupa.wav","no","t","p","u","yes","a","tupa","Test","alveolar","NewWordTestStimuli",NA,NA,NA,NA,0,57,57,26,NA,NA,NA,NA,"Yes",0.987,136,"M",19,60.0279652224,"Spanish, Hebrew, French","American English","VSH_Exp2","2016_Mar_24_1519",NA
"Recordings/zati.wav","yes","z","t","a","no","i","zati","Controls","alveolar","NoPatternControls",NA,NA,NA,NA,0,58,58,56,NA,NA,NA,NA,"No",1.287,136,"M",19,60.0279652224,"Spanish, Hebrew, French","American English","VSH_Exp2","2016_Mar_24_1519",NA
"Recordings/dazu.wav","yes","d","z","a","yes","u","dazu","Controls","alveolar","VoicingControls",NA,NA,NA,NA,0,59,59,49,NA,NA,NA,NA,"No",1.471,136,"M",19,60.0279652224,"Spanish, Hebrew, French","American English","VSH_Exp2","2016_Mar_24_1519",NA
