"SOUND","VOICING","SEGMENT","SEGMENT3","SEGMENT2","STOP","SEGMENT4","STIMULUS","GENERAL_TYPE","PLACE","TYPE","trials.thisRepN","trials.thisTrialN","trials.thisN","trials.thisIndex","trials_2.thisRepN","trials_2.thisTrialN","trials_2.thisN","trials_2.thisIndex","SpaceBar.keys","SpaceBar.rt","key_resp_2.keys","key_resp_2.rt","rating.response","rating.rt","participant","Gender","Age","frameRate","OtherLanguages","NativeLanguage","expName","date","X34"
NA,NA,NA,NA,NA,NA,NA,NA,NA,NA,NA,NA,NA,NA,NA,NA,NA,NA,NA,"space",3.87163186073,NA,NA,NA,NA,17,FALSE,21,59.9480887751,NA,"American English","VSH_Exp2","2016_Mar_02_1804",NA
"Recordings/diba.wav","yes","d","b","i","yes","a","diba","Training","alveolar","TrainingItems",0,0,0,59,NA,NA,NA,NA,NA,NA,NA,NA,NA,NA,17,FALSE,21,59.9480887751,NA,"American English","VSH_Exp2","2016_Mar_02_1804",NA
"Recordings/vivu.wav","yes","v","v","i","no","u","vivu","Training","bilabial","TrainingItems",0,1,1,10,NA,NA,NA,NA,NA,NA,NA,NA,NA,NA,17,FALSE,21,59.9480887751,NA,"American English","VSH_Exp2","2016_Mar_02_1804",NA
"Recordings/patu.wav","no","p","t","a","yes","u","patu","Training","bilabial","TrainingItems",0,2,2,53,NA,NA,NA,NA,NA,NA,NA,NA,NA,NA,17,FALSE,21,59.9480887751,NA,"American English","VSH_Exp2","2016_Mar_02_1804",NA
"Recordings/puta.wav","no","p","t","u","yes","a","puta","Training","bilabial","TrainingItems",0,3,3,68,NA,NA,NA,NA,NA,NA,NA,NA,NA,NA,17,FALSE,21,59.9480887751,NA,"American English","VSH_Exp2","2016_Mar_02_1804",NA
"Recordings/dada.wav","yes","d","d","a","yes","a","dada","Training","alveolar","TrainingItems",0,4,4,58,NA,NA,NA,NA,NA,NA,NA,NA,NA,NA,17,FALSE,21,59.9480887751,NA,"American English","VSH_Exp2","2016_Mar_02_1804",NA
"Recordings/vava.wav","yes","v","v","a","no","a","vava","Training","bilabial","TrainingItems",0,5,5,60,NA,NA,NA,NA,NA,NA,NA,NA,NA,NA,17,FALSE,21,59.9480887751,NA,"American English","VSH_Exp2","2016_Mar_02_1804",NA
"Recordings/tatu.wav","no","t","t","a","yes","u","tatu","Training","alveolar","TrainingItems",0,6,6,7,NA,NA,NA,NA,NA,NA,NA,NA,NA,NA,17,FALSE,21,59.9480887751,NA,"American English","VSH_Exp2","2016_Mar_02_1804",NA
"Recordings/tipi.wav","no","t","p","i","yes","i","tipi","Training","alveolar","TrainingItems",0,7,7,77,NA,NA,NA,NA,NA,NA,NA,NA,NA,NA,17,FALSE,21,59.9480887751,NA,"American English","VSH_Exp2","2016_Mar_02_1804",NA
"Recordings/vivi.wav","yes","v","v","i","no","i","vivi","Training","bilabial","TrainingItems",0,8,8,29,NA,NA,NA,NA,NA,NA,NA,NA,NA,NA,17,FALSE,21,59.9480887751,NA,"American English","VSH_Exp2","2016_Mar_02_1804",NA
"Recordings/tupi.wav","no","t","p","u","yes","i","tupi","Training","alveolar","TrainingItems",0,9,9,94,NA,NA,NA,NA,NA,NA,NA,NA,NA,NA,17,FALSE,21,59.9480887751,NA,"American English","VSH_Exp2","2016_Mar_02_1804",NA
"Recordings/vavu.wav","yes","v","v","a","no","u","vavu","Training","bilabial","TrainingItems",0,10,10,44,NA,NA,NA,NA,NA,NA,NA,NA,NA,NA,17,FALSE,21,59.9480887751,NA,"American English","VSH_Exp2","2016_Mar_02_1804",NA
"Recordings/bubu.wav","yes","b","b","u","yes","u","bubu","Training","bilabial","TrainingItems",0,11,11,76,NA,NA,NA,NA,NA,NA,NA,NA,NA,NA,17,FALSE,21,59.9480887751,NA,"American English","VSH_Exp2","2016_Mar_02_1804",NA
"Recordings/dabi.wav","yes","d","b","a","yes","i","dabi","Training","alveolar","TrainingItems",0,12,12,34,NA,NA,NA,NA,NA,NA,NA,NA,NA,NA,17,FALSE,21,59.9480887751,NA,"American English","VSH_Exp2","2016_Mar_02_1804",NA
"Recordings/bubi.wav","yes","b","b","u","yes","i","bubi","Training","bilabial","TrainingItems",0,13,13,16,NA,NA,NA,NA,NA,NA,NA,NA,NA,NA,17,FALSE,21,59.9480887751,NA,"American English","VSH_Exp2","2016_Mar_02_1804",NA
"Recordings/ziza.wav","yes","z","z","i","no","a","ziza","Training","alveolar","TrainingItems",0,14,14,85,NA,NA,NA,NA,NA,NA,NA,NA,NA,NA,17,FALSE,21,59.9480887751,NA,"American English","VSH_Exp2","2016_Mar_02_1804",NA
"Recordings/pitu.wav","no","p","t","i","yes","u","pitu","Training","bilabial","TrainingItems",0,15,15,36,NA,NA,NA,NA,NA,NA,NA,NA,NA,NA,17,FALSE,21,59.9480887751,NA,"American English","VSH_Exp2","2016_Mar_02_1804",NA
"Recordings/pati.wav","no","p","t","a","yes","i","pati","Training","bilabial","TrainingItems",0,16,16,17,NA,NA,NA,NA,NA,NA,NA,NA,NA,NA,17,FALSE,21,59.9480887751,NA,"American English","VSH_Exp2","2016_Mar_02_1804",NA
"Recordings/bibu.wav","yes","b","b","i","yes","u","bibu","Training","bilabial","TrainingItems",0,17,17,56,NA,NA,NA,NA,NA,NA,NA,NA,NA,NA,17,FALSE,21,59.9480887751,NA,"American English","VSH_Exp2","2016_Mar_02_1804",NA
"Recordings/bida.wav","yes","b","d","i","yes","a","bida","Training","bilabial","TrainingItems",0,18,18,15,NA,NA,NA,NA,NA,NA,NA,NA,NA,NA,17,FALSE,21,59.9480887751,NA,"American English","VSH_Exp2","2016_Mar_02_1804",NA
"Recordings/pupa.wav","no","p","p","u","yes","a","pupa","Training","bilabial","TrainingItems",0,19,19,3,NA,NA,NA,NA,NA,NA,NA,NA,NA,NA,17,FALSE,21,59.9480887751,NA,"American English","VSH_Exp2","2016_Mar_02_1804",NA
"Recordings/bidu.wav","yes","b","d","i","yes","u","bidu","Training","bilabial","TrainingItems",0,20,20,67,NA,NA,NA,NA,NA,NA,NA,NA,NA,NA,17,FALSE,21,59.9480887751,NA,"American English","VSH_Exp2","2016_Mar_02_1804",NA
"Recordings/dida.wav","yes","d","d","i","yes","a","dida","Training","alveolar","TrainingItems",0,21,21,62,NA,NA,NA,NA,NA,NA,NA,NA,NA,NA,17,FALSE,21,59.9480887751,NA,"American English","VSH_Exp2","2016_Mar_02_1804",NA
"Recordings/fusa.wav","no","f","s","u","no","a","fusa","Training","bilabial","TrainingItems",0,22,22,89,NA,NA,NA,NA,NA,NA,NA,NA,NA,NA,17,FALSE,21,59.9480887751,NA,"American English","VSH_Exp2","2016_Mar_02_1804",NA
"Recordings/fafi.wav","no","f","f","a","no","i","fafi","Training","bilabial","TrainingItems",0,23,23,82,NA,NA,NA,NA,NA,NA,NA,NA,NA,NA,17,FALSE,21,59.9480887751,NA,"American English","VSH_Exp2","2016_Mar_02_1804",NA
"Recordings/fufi.wav","no","f","f","u","no","i","fufi","Training","bilabial","TrainingItems",0,24,24,50,NA,NA,NA,NA,NA,NA,NA,NA,NA,NA,17,FALSE,21,59.9480887751,NA,"American English","VSH_Exp2","2016_Mar_02_1804",NA
"Recordings/tapi.wav","no","t","p","a","yes","i","tapi","Training","alveolar","TrainingItems",0,25,25,88,NA,NA,NA,NA,NA,NA,NA,NA,NA,NA,17,FALSE,21,59.9480887751,NA,"American English","VSH_Exp2","2016_Mar_02_1804",NA
"Recordings/fasu.wav","no","f","s","a","no","u","fasu","Training","bilabial","TrainingItems",0,26,26,95,NA,NA,NA,NA,NA,NA,NA,NA,NA,NA,17,FALSE,21,59.9480887751,NA,"American English","VSH_Exp2","2016_Mar_02_1804",NA
"Recordings/tata.wav","no","t","t","a","yes","a","tata","Training","alveolar","TrainingItems",0,27,27,91,NA,NA,NA,NA,NA,NA,NA,NA,NA,NA,17,FALSE,21,59.9480887751,NA,"American English","VSH_Exp2","2016_Mar_02_1804",NA
"Recordings/fusi.wav","no","f","s","u","no","i","fusi","Training","bilabial","TrainingItems",0,28,28,23,NA,NA,NA,NA,NA,NA,NA,NA,NA,NA,17,FALSE,21,59.9480887751,NA,"American English","VSH_Exp2","2016_Mar_02_1804",NA
"Recordings/budi.wav","yes","b","d","u","yes","i","budi","Training","bilabial","TrainingItems",0,29,29,24,NA,NA,NA,NA,NA,NA,NA,NA,NA,NA,17,FALSE,21,59.9480887751,NA,"American English","VSH_Exp2","2016_Mar_02_1804",NA
"Recordings/buba.wav","yes","b","b","u","yes","a","buba","Training","bilabial","TrainingItems",0,30,30,31,NA,NA,NA,NA,NA,NA,NA,NA,NA,NA,17,FALSE,21,59.9480887751,NA,"American English","VSH_Exp2","2016_Mar_02_1804",NA
"Recordings/pipa.wav","no","p","p","i","yes","a","pipa","Training","bilabial","TrainingItems",0,31,31,48,NA,NA,NA,NA,NA,NA,NA,NA,NA,NA,17,FALSE,21,59.9480887751,NA,"American English","VSH_Exp2","2016_Mar_02_1804",NA
"Recordings/pipi.wav","no","p","p","i","yes","i","pipi","Training","bilabial","TrainingItems",0,32,32,32,NA,NA,NA,NA,NA,NA,NA,NA,NA,NA,17,FALSE,21,59.9480887751,NA,"American English","VSH_Exp2","2016_Mar_02_1804",NA
"Recordings/vuva.wav","yes","v","v","u","no","a","vuva","Training","bilabial","TrainingItems",0,33,33,99,NA,NA,NA,NA,NA,NA,NA,NA,NA,NA,17,FALSE,21,59.9480887751,NA,"American English","VSH_Exp2","2016_Mar_02_1804",NA
"Recordings/duba.wav","yes","d","b","u","yes","a","duba","Training","alveolar","TrainingItems",0,34,34,78,NA,NA,NA,NA,NA,NA,NA,NA,NA,NA,17,FALSE,21,59.9480887751,NA,"American English","VSH_Exp2","2016_Mar_02_1804",NA
"Recordings/fifi.wav","no","f","f","i","no","i","fifi","Training","bilabial","TrainingItems",0,35,35,64,NA,NA,NA,NA,NA,NA,NA,NA,NA,NA,17,FALSE,21,59.9480887751,NA,"American English","VSH_Exp2","2016_Mar_02_1804",NA
"Recordings/zaza.wav","yes","z","z","a","no","a","zaza","Training","alveolar","TrainingItems",0,36,36,55,NA,NA,NA,NA,NA,NA,NA,NA,NA,NA,17,FALSE,21,59.9480887751,NA,"American English","VSH_Exp2","2016_Mar_02_1804",NA
"Recordings/tipa.wav","no","t","p","i","yes","a","tipa","Training","alveolar","TrainingItems",0,37,37,66,NA,NA,NA,NA,NA,NA,NA,NA,NA,NA,17,FALSE,21,59.9480887751,NA,"American English","VSH_Exp2","2016_Mar_02_1804",NA
"Recordings/sasa.wav","no","s","s","a","no","a","sasa","Training","alveolar","TrainingItems",0,38,38,22,NA,NA,NA,NA,NA,NA,NA,NA,NA,NA,17,FALSE,21,59.9480887751,NA,"American English","VSH_Exp2","2016_Mar_02_1804",NA
"Recordings/zizi.wav","yes","z","z","i","no","i","zizi","Training","alveolar","TrainingItems",0,39,39,35,NA,NA,NA,NA,NA,NA,NA,NA,NA,NA,17,FALSE,21,59.9480887751,NA,"American English","VSH_Exp2","2016_Mar_02_1804",NA
"Recordings/zuzi.wav","yes","z","z","u","no","i","zuzi","Training","alveolar","TrainingItems",0,40,40,87,NA,NA,NA,NA,NA,NA,NA,NA,NA,NA,17,FALSE,21,59.9480887751,NA,"American English","VSH_Exp2","2016_Mar_02_1804",NA
"Recordings/zuzu.wav","yes","z","z","u","no","u","zuzu","Training","alveolar","TrainingItems",0,41,41,20,NA,NA,NA,NA,NA,NA,NA,NA,NA,NA,17,FALSE,21,59.9480887751,NA,"American English","VSH_Exp2","2016_Mar_02_1804",NA
"Recordings/fufa.wav","no","f","f","u","no","a","fufa","Training","bilabial","TrainingItems",0,42,42,39,NA,NA,NA,NA,NA,NA,NA,NA,NA,NA,17,FALSE,21,59.9480887751,NA,"American English","VSH_Exp2","2016_Mar_02_1804",NA
"Recordings/tita.wav","no","t","t","i","yes","a","tita","Training","alveolar","TrainingItems",0,43,43,9,NA,NA,NA,NA,NA,NA,NA,NA,NA,NA,17,FALSE,21,59.9480887751,NA,"American English","VSH_Exp2","2016_Mar_02_1804",NA
"Recordings/baba.wav","yes","b","b","a","yes","a","baba","Training","bilabial","TrainingItems",0,44,44,8,NA,NA,NA,NA,NA,NA,NA,NA,NA,NA,17,FALSE,21,59.9480887751,NA,"American English","VSH_Exp2","2016_Mar_02_1804",NA
"Recordings/tapa.wav","no","t","p","a","yes","a","tapa","Training","alveolar","TrainingItems",0,45,45,40,NA,NA,NA,NA,NA,NA,NA,NA,NA,NA,17,FALSE,21,59.9480887751,NA,"American English","VSH_Exp2","2016_Mar_02_1804",NA
"Recordings/fafa.wav","no","f","f","a","no","a","fafa","Training","bilabial","TrainingItems",0,46,46,92,NA,NA,NA,NA,NA,NA,NA,NA,NA,NA,17,FALSE,21,59.9480887751,NA,"American English","VSH_Exp2","2016_Mar_02_1804",NA
"Recordings/sifa.wav","no","s","f","i","no","a","sifa","Training","alveolar","TrainingItems",0,47,47,5,NA,NA,NA,NA,NA,NA,NA,NA,NA,NA,17,FALSE,21,59.9480887751,NA,"American English","VSH_Exp2","2016_Mar_02_1804",NA
"Recordings/fifu.wav","no","f","f","i","no","u","fifu","Training","bilabial","TrainingItems",0,48,48,14,NA,NA,NA,NA,NA,NA,NA,NA,NA,NA,17,FALSE,21,59.9480887751,NA,"American English","VSH_Exp2","2016_Mar_02_1804",NA
"Recordings/babi.wav","yes","b","b","a","yes","i","babi","Training","bilabial","TrainingItems",0,49,49,47,NA,NA,NA,NA,NA,NA,NA,NA,NA,NA,17,FALSE,21,59.9480887751,NA,"American English","VSH_Exp2","2016_Mar_02_1804",NA
"Recordings/sasu.wav","no","s","s","a","no","u","sasu","Training","alveolar","TrainingItems",0,50,50,12,NA,NA,NA,NA,NA,NA,NA,NA,NA,NA,17,FALSE,21,59.9480887751,NA,"American English","VSH_Exp2","2016_Mar_02_1804",NA
"Recordings/zizu.wav","yes","z","z","i","no","u","zizu","Training","alveolar","TrainingItems",0,51,51,57,NA,NA,NA,NA,NA,NA,NA,NA,NA,NA,17,FALSE,21,59.9480887751,NA,"American English","VSH_Exp2","2016_Mar_02_1804",NA
"Recordings/bibi.wav","yes","b","b","i","yes","i","bibi","Training","bilabial","TrainingItems",0,52,52,11,NA,NA,NA,NA,NA,NA,NA,NA,NA,NA,17,FALSE,21,59.9480887751,NA,"American English","VSH_Exp2","2016_Mar_02_1804",NA
"Recordings/sifu.wav","no","s","f","i","no","u","sifu","Training","alveolar","TrainingItems",0,53,53,37,NA,NA,NA,NA,NA,NA,NA,NA,NA,NA,17,FALSE,21,59.9480887751,NA,"American English","VSH_Exp2","2016_Mar_02_1804",NA
"Recordings/fusu.wav","no","f","s","u","no","u","fusu","Training","bilabial","TrainingItems",0,54,54,90,NA,NA,NA,NA,NA,NA,NA,NA,NA,NA,17,FALSE,21,59.9480887751,NA,"American English","VSH_Exp2","2016_Mar_02_1804",NA
"Recordings/didu.wav","yes","d","d","i","yes","u","didu","Training","alveolar","TrainingItems",0,55,55,83,NA,NA,NA,NA,NA,NA,NA,NA,NA,NA,17,FALSE,21,59.9480887751,NA,"American English","VSH_Exp2","2016_Mar_02_1804",NA
"Recordings/zazi.wav","yes","z","z","a","no","i","zazi","Training","alveolar","TrainingItems",0,56,56,46,NA,NA,NA,NA,NA,NA,NA,NA,NA,NA,17,FALSE,21,59.9480887751,NA,"American English","VSH_Exp2","2016_Mar_02_1804",NA
"Recordings/babu.wav","yes","b","b","a","yes","u","babu","Training","bilabial","TrainingItems",0,57,57,69,NA,NA,NA,NA,NA,NA,NA,NA,NA,NA,17,FALSE,21,59.9480887751,NA,"American English","VSH_Exp2","2016_Mar_02_1804",NA
"Recordings/piti.wav","no","p","t","i","yes","i","piti","Training","bilabial","TrainingItems",0,58,58,63,NA,NA,NA,NA,NA,NA,NA,NA,NA,NA,17,FALSE,21,59.9480887751,NA,"American English","VSH_Exp2","2016_Mar_02_1804",NA
"Recordings/biba.wav","yes","b","b","i","yes","a","biba","Training","bilabial","TrainingItems",0,59,59,84,NA,NA,NA,NA,NA,NA,NA,NA,NA,NA,17,FALSE,21,59.9480887751,NA,"American English","VSH_Exp2","2016_Mar_02_1804",NA
"Recordings/susa.wav","no","s","s","u","no","a","susa","Training","alveolar","TrainingItems",0,60,60,19,NA,NA,NA,NA,NA,NA,NA,NA,NA,NA,17,FALSE,21,59.9480887751,NA,"American English","VSH_Exp2","2016_Mar_02_1804",NA
"Recordings/susu.wav","no","s","s","u","no","u","susu","Training","alveolar","TrainingItems",0,61,61,72,NA,NA,NA,NA,NA,NA,NA,NA,NA,NA,17,FALSE,21,59.9480887751,NA,"American English","VSH_Exp2","2016_Mar_02_1804",NA
"Recordings/tapu.wav","no","t","p","a","yes","u","tapu","Training","alveolar","TrainingItems",0,62,62,81,NA,NA,NA,NA,NA,NA,NA,NA,NA,NA,17,FALSE,21,59.9480887751,NA,"American English","VSH_Exp2","2016_Mar_02_1804",NA
"Recordings/tupa.wav","no","t","p","u","yes","a","tupa","Training","alveolar","TrainingItems",0,63,63,52,NA,NA,NA,NA,NA,NA,NA,NA,NA,NA,17,FALSE,21,59.9480887751,NA,"American English","VSH_Exp2","2016_Mar_02_1804",NA
"Recordings/safi.wav","no","s","f","a","no","i","safi","Training","alveolar","TrainingItems",0,64,64,38,NA,NA,NA,NA,NA,NA,NA,NA,NA,NA,17,FALSE,21,59.9480887751,NA,"American English","VSH_Exp2","2016_Mar_02_1804",NA
"Recordings/badi.wav","yes","b","d","a","yes","i","badi","Training","bilabial","TrainingItems",0,65,65,98,NA,NA,NA,NA,NA,NA,NA,NA,NA,NA,17,FALSE,21,59.9480887751,NA,"American English","VSH_Exp2","2016_Mar_02_1804",NA
"Recordings/sufa.wav","no","s","f","u","no","a","sufa","Training","alveolar","TrainingItems",0,66,66,80,NA,NA,NA,NA,NA,NA,NA,NA,NA,NA,17,FALSE,21,59.9480887751,NA,"American English","VSH_Exp2","2016_Mar_02_1804",NA
"Recordings/dibu.wav","yes","d","b","i","yes","u","dibu","Training","alveolar","TrainingItems",0,67,67,54,NA,NA,NA,NA,NA,NA,NA,NA,NA,NA,17,FALSE,21,59.9480887751,NA,"American English","VSH_Exp2","2016_Mar_02_1804",NA
"Recordings/dubu.wav","yes","d","b","u","yes","u","dubu","Training","alveolar","TrainingItems",0,68,68,71,NA,NA,NA,NA,NA,NA,NA,NA,NA,NA,17,FALSE,21,59.9480887751,NA,"American English","VSH_Exp2","2016_Mar_02_1804",NA
"Recordings/daba.wav","yes","d","b","a","yes","a","daba","Training","alveolar","TrainingItems",0,69,69,70,NA,NA,NA,NA,NA,NA,NA,NA,NA,NA,17,FALSE,21,59.9480887751,NA,"American English","VSH_Exp2","2016_Mar_02_1804",NA
"Recordings/pupi.wav","no","p","p","u","yes","i","pupi","Training","bilabial","TrainingItems",0,70,70,97,NA,NA,NA,NA,NA,NA,NA,NA,NA,NA,17,FALSE,21,59.9480887751,NA,"American English","VSH_Exp2","2016_Mar_02_1804",NA
"Recordings/dabu.wav","yes","d","b","a","yes","u","dabu","Training","alveolar","TrainingItems",0,71,71,25,NA,NA,NA,NA,NA,NA,NA,NA,NA,NA,17,FALSE,21,59.9480887751,NA,"American English","VSH_Exp2","2016_Mar_02_1804",NA
"Recordings/tati.wav","no","t","t","a","yes","i","tati","Training","alveolar","TrainingItems",0,72,72,28,NA,NA,NA,NA,NA,NA,NA,NA,NA,NA,17,FALSE,21,59.9480887751,NA,"American English","VSH_Exp2","2016_Mar_02_1804",NA
"Recordings/fisu.wav","no","f","s","i","no","u","fisu","Training","bilabial","TrainingItems",0,73,73,2,NA,NA,NA,NA,NA,NA,NA,NA,NA,NA,17,FALSE,21,59.9480887751,NA,"American English","VSH_Exp2","2016_Mar_02_1804",NA
"Recordings/vuvi.wav","yes","v","v","u","no","i","vuvi","Training","bilabial","TrainingItems",0,74,74,42,NA,NA,NA,NA,NA,NA,NA,NA,NA,NA,17,FALSE,21,59.9480887751,NA,"American English","VSH_Exp2","2016_Mar_02_1804",NA
"Recordings/tuta.wav","no","t","t","u","yes","a","tuta","Training","alveolar","TrainingItems",0,75,75,21,NA,NA,NA,NA,NA,NA,NA,NA,NA,NA,17,FALSE,21,59.9480887751,NA,"American English","VSH_Exp2","2016_Mar_02_1804",NA
"Recordings/budu.wav","yes","b","d","u","yes","u","budu","Training","bilabial","TrainingItems",0,76,76,45,NA,NA,NA,NA,NA,NA,NA,NA,NA,NA,17,FALSE,21,59.9480887751,NA,"American English","VSH_Exp2","2016_Mar_02_1804",NA
"Recordings/dadu.wav","yes","d","d","a","yes","u","dadu","Training","alveolar","TrainingItems",0,77,77,30,NA,NA,NA,NA,NA,NA,NA,NA,NA,NA,17,FALSE,21,59.9480887751,NA,"American English","VSH_Exp2","2016_Mar_02_1804",NA
"Recordings/dibi.wav","yes","d","b","i","yes","i","dibi","Training","alveolar","TrainingItems",0,78,78,61,NA,NA,NA,NA,NA,NA,NA,NA,NA,NA,17,FALSE,21,59.9480887751,NA,"American English","VSH_Exp2","2016_Mar_02_1804",NA
"Recordings/tipu.wav","no","t","p","i","yes","u","tipu","Training","alveolar","TrainingItems",0,79,79,27,NA,NA,NA,NA,NA,NA,NA,NA,NA,NA,17,FALSE,21,59.9480887751,NA,"American English","VSH_Exp2","2016_Mar_02_1804",NA
"Recordings/sisi.wav","no","s","s","i","no","i","sisi","Training","alveolar","TrainingItems",0,80,80,13,NA,NA,NA,NA,NA,NA,NA,NA,NA,NA,17,FALSE,21,59.9480887751,NA,"American English","VSH_Exp2","2016_Mar_02_1804",NA
"Recordings/putu.wav","no","p","t","u","yes","u","putu","Training","bilabial","TrainingItems",0,81,81,73,NA,NA,NA,NA,NA,NA,NA,NA,NA,NA,17,FALSE,21,59.9480887751,NA,"American English","VSH_Exp2","2016_Mar_02_1804",NA
"Recordings/sisa.wav","no","s","s","i","no","a","sisa","Training","alveolar","TrainingItems",0,82,82,74,NA,NA,NA,NA,NA,NA,NA,NA,NA,NA,17,FALSE,21,59.9480887751,NA,"American English","VSH_Exp2","2016_Mar_02_1804",NA
"Recordings/duda.wav","yes","d","d","u","yes","a","duda","Training","alveolar","TrainingItems",0,83,83,93,NA,NA,NA,NA,NA,NA,NA,NA,NA,NA,17,FALSE,21,59.9480887751,NA,"American English","VSH_Exp2","2016_Mar_02_1804",NA
"Recordings/fasa.wav","no","f","s","a","no","a","fasa","Training","bilabial","TrainingItems",0,84,84,79,NA,NA,NA,NA,NA,NA,NA,NA,NA,NA,17,FALSE,21,59.9480887751,NA,"American English","VSH_Exp2","2016_Mar_02_1804",NA
"Recordings/buda.wav","yes","b","d","u","yes","a","buda","Training","bilabial","TrainingItems",0,85,85,51,NA,NA,NA,NA,NA,NA,NA,NA,NA,NA,17,FALSE,21,59.9480887751,NA,"American English","VSH_Exp2","2016_Mar_02_1804",NA
"Recordings/susi.wav","no","s","s","u","no","i","susi","Training","alveolar","TrainingItems",0,86,86,1,NA,NA,NA,NA,NA,NA,NA,NA,NA,NA,17,FALSE,21,59.9480887751,NA,"American English","VSH_Exp2","2016_Mar_02_1804",NA
"Recordings/safa.wav","no","s","f","a","no","a","safa","Training","alveolar","TrainingItems",0,87,87,41,NA,NA,NA,NA,NA,NA,NA,NA,NA,NA,17,FALSE,21,59.9480887751,NA,"American English","VSH_Exp2","2016_Mar_02_1804",NA
"Recordings/tupu.wav","no","t","p","u","yes","u","tupu","Training","alveolar","TrainingItems",0,88,88,49,NA,NA,NA,NA,NA,NA,NA,NA,NA,NA,17,FALSE,21,59.9480887751,NA,"American English","VSH_Exp2","2016_Mar_02_1804",NA
"Recordings/vuvu.wav","yes","v","v","u","no","u","vuvu","Training","bilabial","TrainingItems",0,89,89,75,NA,NA,NA,NA,NA,NA,NA,NA,NA,NA,17,FALSE,21,59.9480887751,NA,"American English","VSH_Exp2","2016_Mar_02_1804",NA
"Recordings/viva.wav","yes","v","v","i","no","a","viva","Training","bilabial","TrainingItems",0,90,90,96,NA,NA,NA,NA,NA,NA,NA,NA,NA,NA,17,FALSE,21,59.9480887751,NA,"American English","VSH_Exp2","2016_Mar_02_1804",NA
"Recordings/bidi.wav","yes","b","d","i","yes","i","bidi","Training","bilabial","TrainingItems",0,91,91,0,NA,NA,NA,NA,NA,NA,NA,NA,NA,NA,17,FALSE,21,59.9480887751,NA,"American English","VSH_Exp2","2016_Mar_02_1804",NA
"Recordings/safu.wav","no","s","f","a","no","u","safu","Training","alveolar","TrainingItems",0,92,92,43,NA,NA,NA,NA,NA,NA,NA,NA,NA,NA,17,FALSE,21,59.9480887751,NA,"American English","VSH_Exp2","2016_Mar_02_1804",NA
"Recordings/dudi.wav","yes","d","d","u","yes","i","dudi","Training","alveolar","TrainingItems",0,93,93,33,NA,NA,NA,NA,NA,NA,NA,NA,NA,NA,17,FALSE,21,59.9480887751,NA,"American English","VSH_Exp2","2016_Mar_02_1804",NA
"Recordings/tutu.wav","no","t","t","u","yes","u","tutu","Training","alveolar","TrainingItems",0,94,94,18,NA,NA,NA,NA,NA,NA,NA,NA,NA,NA,17,FALSE,21,59.9480887751,NA,"American English","VSH_Exp2","2016_Mar_02_1804",NA
"Recordings/sasi.wav","no","s","s","a","no","i","sasi","Training","alveolar","TrainingItems",0,95,95,26,NA,NA,NA,NA,NA,NA,NA,NA,NA,NA,17,FALSE,21,59.9480887751,NA,"American English","VSH_Exp2","2016_Mar_02_1804",NA
"Recordings/sufi.wav","no","s","f","u","no","i","sufi","Training","alveolar","TrainingItems",0,96,96,4,NA,NA,NA,NA,NA,NA,NA,NA,NA,NA,17,FALSE,21,59.9480887751,NA,"American English","VSH_Exp2","2016_Mar_02_1804",NA
"Recordings/titi.wav","no","t","t","i","yes","i","titi","Training","alveolar","TrainingItems",0,97,97,65,NA,NA,NA,NA,NA,NA,NA,NA,NA,NA,17,FALSE,21,59.9480887751,NA,"American English","VSH_Exp2","2016_Mar_02_1804",NA
"Recordings/papu.wav","no","p","p","a","yes","u","papu","Training","bilabial","TrainingItems",0,98,98,86,NA,NA,NA,NA,NA,NA,NA,NA,NA,NA,17,FALSE,21,59.9480887751,NA,"American English","VSH_Exp2","2016_Mar_02_1804",NA
"Recordings/sufu.wav","no","s","f","u","no","u","sufu","Training","alveolar","TrainingItems",0,99,99,6,NA,NA,NA,NA,NA,NA,NA,NA,NA,NA,17,FALSE,21,59.9480887751,NA,"American English","VSH_Exp2","2016_Mar_02_1804",NA
"Recordings/babu.wav","yes","b","b","a","yes","u","babu","Training","bilabial","TrainingItems",1,0,100,69,NA,NA,NA,NA,NA,NA,NA,NA,NA,NA,17,FALSE,21,59.9480887751,NA,"American English","VSH_Exp2","2016_Mar_02_1804",NA
"Recordings/pupa.wav","no","p","p","u","yes","a","pupa","Training","bilabial","TrainingItems",1,1,101,3,NA,NA,NA,NA,NA,NA,NA,NA,NA,NA,17,FALSE,21,59.9480887751,NA,"American English","VSH_Exp2","2016_Mar_02_1804",NA
"Recordings/tupu.wav","no","t","p","u","yes","u","tupu","Training","alveolar","TrainingItems",1,2,102,49,NA,NA,NA,NA,NA,NA,NA,NA,NA,NA,17,FALSE,21,59.9480887751,NA,"American English","VSH_Exp2","2016_Mar_02_1804",NA
"Recordings/sasa.wav","no","s","s","a","no","a","sasa","Training","alveolar","TrainingItems",1,3,103,22,NA,NA,NA,NA,NA,NA,NA,NA,NA,NA,17,FALSE,21,59.9480887751,NA,"American English","VSH_Exp2","2016_Mar_02_1804",NA
"Recordings/pati.wav","no","p","t","a","yes","i","pati","Training","bilabial","TrainingItems",1,4,104,17,NA,NA,NA,NA,NA,NA,NA,NA,NA,NA,17,FALSE,21,59.9480887751,NA,"American English","VSH_Exp2","2016_Mar_02_1804",NA
"Recordings/bidi.wav","yes","b","d","i","yes","i","bidi","Training","bilabial","TrainingItems",1,5,105,0,NA,NA,NA,NA,NA,NA,NA,NA,NA,NA,17,FALSE,21,59.9480887751,NA,"American English","VSH_Exp2","2016_Mar_02_1804",NA
"Recordings/susa.wav","no","s","s","u","no","a","susa","Training","alveolar","TrainingItems",1,6,106,19,NA,NA,NA,NA,NA,NA,NA,NA,NA,NA,17,FALSE,21,59.9480887751,NA,"American English","VSH_Exp2","2016_Mar_02_1804",NA
"Recordings/pipa.wav","no","p","p","i","yes","a","pipa","Training","bilabial","TrainingItems",1,7,107,48,NA,NA,NA,NA,NA,NA,NA,NA,NA,NA,17,FALSE,21,59.9480887751,NA,"American English","VSH_Exp2","2016_Mar_02_1804",NA
"Recordings/sisa.wav","no","s","s","i","no","a","sisa","Training","alveolar","TrainingItems",1,8,108,74,NA,NA,NA,NA,NA,NA,NA,NA,NA,NA,17,FALSE,21,59.9480887751,NA,"American English","VSH_Exp2","2016_Mar_02_1804",NA
"Recordings/bibi.wav","yes","b","b","i","yes","i","bibi","Training","bilabial","TrainingItems",1,9,109,11,NA,NA,NA,NA,NA,NA,NA,NA,NA,NA,17,FALSE,21,59.9480887751,NA,"American English","VSH_Exp2","2016_Mar_02_1804",NA
"Recordings/papu.wav","no","p","p","a","yes","u","papu","Training","bilabial","TrainingItems",1,10,110,86,NA,NA,NA,NA,NA,NA,NA,NA,NA,NA,17,FALSE,21,59.9480887751,NA,"American English","VSH_Exp2","2016_Mar_02_1804",NA
"Recordings/fifu.wav","no","f","f","i","no","u","fifu","Training","bilabial","TrainingItems",1,11,111,14,NA,NA,NA,NA,NA,NA,NA,NA,NA,NA,17,FALSE,21,59.9480887751,NA,"American English","VSH_Exp2","2016_Mar_02_1804",NA
"Recordings/tapa.wav","no","t","p","a","yes","a","tapa","Training","alveolar","TrainingItems",1,12,112,40,NA,NA,NA,NA,NA,NA,NA,NA,NA,NA,17,FALSE,21,59.9480887751,NA,"American English","VSH_Exp2","2016_Mar_02_1804",NA
"Recordings/vivi.wav","yes","v","v","i","no","i","vivi","Training","bilabial","TrainingItems",1,13,113,29,NA,NA,NA,NA,NA,NA,NA,NA,NA,NA,17,FALSE,21,59.9480887751,NA,"American English","VSH_Exp2","2016_Mar_02_1804",NA
"Recordings/tata.wav","no","t","t","a","yes","a","tata","Training","alveolar","TrainingItems",1,14,114,91,NA,NA,NA,NA,NA,NA,NA,NA,NA,NA,17,FALSE,21,59.9480887751,NA,"American English","VSH_Exp2","2016_Mar_02_1804",NA
"Recordings/sifu.wav","no","s","f","i","no","u","sifu","Training","alveolar","TrainingItems",1,15,115,37,NA,NA,NA,NA,NA,NA,NA,NA,NA,NA,17,FALSE,21,59.9480887751,NA,"American English","VSH_Exp2","2016_Mar_02_1804",NA
"Recordings/duda.wav","yes","d","d","u","yes","a","duda","Training","alveolar","TrainingItems",1,16,116,93,NA,NA,NA,NA,NA,NA,NA,NA,NA,NA,17,FALSE,21,59.9480887751,NA,"American English","VSH_Exp2","2016_Mar_02_1804",NA
"Recordings/dada.wav","yes","d","d","a","yes","a","dada","Training","alveolar","TrainingItems",1,17,117,58,NA,NA,NA,NA,NA,NA,NA,NA,NA,NA,17,FALSE,21,59.9480887751,NA,"American English","VSH_Exp2","2016_Mar_02_1804",NA
"Recordings/bubu.wav","yes","b","b","u","yes","u","bubu","Training","bilabial","TrainingItems",1,18,118,76,NA,NA,NA,NA,NA,NA,NA,NA,NA,NA,17,FALSE,21,59.9480887751,NA,"American English","VSH_Exp2","2016_Mar_02_1804",NA
"Recordings/fifi.wav","no","f","f","i","no","i","fifi","Training","bilabial","TrainingItems",1,19,119,64,NA,NA,NA,NA,NA,NA,NA,NA,NA,NA,17,FALSE,21,59.9480887751,NA,"American English","VSH_Exp2","2016_Mar_02_1804",NA
"Recordings/duba.wav","yes","d","b","u","yes","a","duba","Training","alveolar","TrainingItems",1,20,120,78,NA,NA,NA,NA,NA,NA,NA,NA,NA,NA,17,FALSE,21,59.9480887751,NA,"American English","VSH_Exp2","2016_Mar_02_1804",NA
"Recordings/patu.wav","no","p","t","a","yes","u","patu","Training","bilabial","TrainingItems",1,21,121,53,NA,NA,NA,NA,NA,NA,NA,NA,NA,NA,17,FALSE,21,59.9480887751,NA,"American English","VSH_Exp2","2016_Mar_02_1804",NA
"Recordings/zizi.wav","yes","z","z","i","no","i","zizi","Training","alveolar","TrainingItems",1,22,122,35,NA,NA,NA,NA,NA,NA,NA,NA,NA,NA,17,FALSE,21,59.9480887751,NA,"American English","VSH_Exp2","2016_Mar_02_1804",NA
"Recordings/biba.wav","yes","b","b","i","yes","a","biba","Training","bilabial","TrainingItems",1,23,123,84,NA,NA,NA,NA,NA,NA,NA,NA,NA,NA,17,FALSE,21,59.9480887751,NA,"American English","VSH_Exp2","2016_Mar_02_1804",NA
"Recordings/bibu.wav","yes","b","b","i","yes","u","bibu","Training","bilabial","TrainingItems",1,24,124,56,NA,NA,NA,NA,NA,NA,NA,NA,NA,NA,17,FALSE,21,59.9480887751,NA,"American English","VSH_Exp2","2016_Mar_02_1804",NA
"Recordings/badi.wav","yes","b","d","a","yes","i","badi","Training","bilabial","TrainingItems",1,25,125,98,NA,NA,NA,NA,NA,NA,NA,NA,NA,NA,17,FALSE,21,59.9480887751,NA,"American English","VSH_Exp2","2016_Mar_02_1804",NA
"Recordings/budu.wav","yes","b","d","u","yes","u","budu","Training","bilabial","TrainingItems",1,26,126,45,NA,NA,NA,NA,NA,NA,NA,NA,NA,NA,17,FALSE,21,59.9480887751,NA,"American English","VSH_Exp2","2016_Mar_02_1804",NA
"Recordings/fufi.wav","no","f","f","u","no","i","fufi","Training","bilabial","TrainingItems",1,27,127,50,NA,NA,NA,NA,NA,NA,NA,NA,NA,NA,17,FALSE,21,59.9480887751,NA,"American English","VSH_Exp2","2016_Mar_02_1804",NA
"Recordings/viva.wav","yes","v","v","i","no","a","viva","Training","bilabial","TrainingItems",1,28,128,96,NA,NA,NA,NA,NA,NA,NA,NA,NA,NA,17,FALSE,21,59.9480887751,NA,"American English","VSH_Exp2","2016_Mar_02_1804",NA
"Recordings/fusa.wav","no","f","s","u","no","a","fusa","Training","bilabial","TrainingItems",1,29,129,89,NA,NA,NA,NA,NA,NA,NA,NA,NA,NA,17,FALSE,21,59.9480887751,NA,"American English","VSH_Exp2","2016_Mar_02_1804",NA
"Recordings/budi.wav","yes","b","d","u","yes","i","budi","Training","bilabial","TrainingItems",1,30,130,24,NA,NA,NA,NA,NA,NA,NA,NA,NA,NA,17,FALSE,21,59.9480887751,NA,"American English","VSH_Exp2","2016_Mar_02_1804",NA
"Recordings/pitu.wav","no","p","t","i","yes","u","pitu","Training","bilabial","TrainingItems",1,31,131,36,NA,NA,NA,NA,NA,NA,NA,NA,NA,NA,17,FALSE,21,59.9480887751,NA,"American English","VSH_Exp2","2016_Mar_02_1804",NA
"Recordings/sufu.wav","no","s","f","u","no","u","sufu","Training","alveolar","TrainingItems",1,32,132,6,NA,NA,NA,NA,NA,NA,NA,NA,NA,NA,17,FALSE,21,59.9480887751,NA,"American English","VSH_Exp2","2016_Mar_02_1804",NA
"Recordings/safi.wav","no","s","f","a","no","i","safi","Training","alveolar","TrainingItems",1,33,133,38,NA,NA,NA,NA,NA,NA,NA,NA,NA,NA,17,FALSE,21,59.9480887751,NA,"American English","VSH_Exp2","2016_Mar_02_1804",NA
"Recordings/sifa.wav","no","s","f","i","no","a","sifa","Training","alveolar","TrainingItems",1,34,134,5,NA,NA,NA,NA,NA,NA,NA,NA,NA,NA,17,FALSE,21,59.9480887751,NA,"American English","VSH_Exp2","2016_Mar_02_1804",NA
"Recordings/fasa.wav","no","f","s","a","no","a","fasa","Training","bilabial","TrainingItems",1,35,135,79,NA,NA,NA,NA,NA,NA,NA,NA,NA,NA,17,FALSE,21,59.9480887751,NA,"American English","VSH_Exp2","2016_Mar_02_1804",NA
"Recordings/tipa.wav","no","t","p","i","yes","a","tipa","Training","alveolar","TrainingItems",1,36,136,66,NA,NA,NA,NA,NA,NA,NA,NA,NA,NA,17,FALSE,21,59.9480887751,NA,"American English","VSH_Exp2","2016_Mar_02_1804",NA
"Recordings/pupi.wav","no","p","p","u","yes","i","pupi","Training","bilabial","TrainingItems",1,37,137,97,NA,NA,NA,NA,NA,NA,NA,NA,NA,NA,17,FALSE,21,59.9480887751,NA,"American English","VSH_Exp2","2016_Mar_02_1804",NA
"Recordings/safa.wav","no","s","f","a","no","a","safa","Training","alveolar","TrainingItems",1,38,138,41,NA,NA,NA,NA,NA,NA,NA,NA,NA,NA,17,FALSE,21,59.9480887751,NA,"American English","VSH_Exp2","2016_Mar_02_1804",NA
"Recordings/susu.wav","no","s","s","u","no","u","susu","Training","alveolar","TrainingItems",1,39,139,72,NA,NA,NA,NA,NA,NA,NA,NA,NA,NA,17,FALSE,21,59.9480887751,NA,"American English","VSH_Exp2","2016_Mar_02_1804",NA
"Recordings/vuvu.wav","yes","v","v","u","no","u","vuvu","Training","bilabial","TrainingItems",1,40,140,75,NA,NA,NA,NA,NA,NA,NA,NA,NA,NA,17,FALSE,21,59.9480887751,NA,"American English","VSH_Exp2","2016_Mar_02_1804",NA
"Recordings/dibi.wav","yes","d","b","i","yes","i","dibi","Training","alveolar","TrainingItems",1,41,141,61,NA,NA,NA,NA,NA,NA,NA,NA,NA,NA,17,FALSE,21,59.9480887751,NA,"American English","VSH_Exp2","2016_Mar_02_1804",NA
"Recordings/zazi.wav","yes","z","z","a","no","i","zazi","Training","alveolar","TrainingItems",1,42,142,46,NA,NA,NA,NA,NA,NA,NA,NA,NA,NA,17,FALSE,21,59.9480887751,NA,"American English","VSH_Exp2","2016_Mar_02_1804",NA
"Recordings/ziza.wav","yes","z","z","i","no","a","ziza","Training","alveolar","TrainingItems",1,43,143,85,NA,NA,NA,NA,NA,NA,NA,NA,NA,NA,17,FALSE,21,59.9480887751,NA,"American English","VSH_Exp2","2016_Mar_02_1804",NA
"Recordings/tapi.wav","no","t","p","a","yes","i","tapi","Training","alveolar","TrainingItems",1,44,144,88,NA,NA,NA,NA,NA,NA,NA,NA,NA,NA,17,FALSE,21,59.9480887751,NA,"American English","VSH_Exp2","2016_Mar_02_1804",NA
"Recordings/dibu.wav","yes","d","b","i","yes","u","dibu","Training","alveolar","TrainingItems",1,45,145,54,NA,NA,NA,NA,NA,NA,NA,NA,NA,NA,17,FALSE,21,59.9480887751,NA,"American English","VSH_Exp2","2016_Mar_02_1804",NA
"Recordings/bubi.wav","yes","b","b","u","yes","i","bubi","Training","bilabial","TrainingItems",1,46,146,16,NA,NA,NA,NA,NA,NA,NA,NA,NA,NA,17,FALSE,21,59.9480887751,NA,"American English","VSH_Exp2","2016_Mar_02_1804",NA
"Recordings/bida.wav","yes","b","d","i","yes","a","bida","Training","bilabial","TrainingItems",1,47,147,15,NA,NA,NA,NA,NA,NA,NA,NA,NA,NA,17,FALSE,21,59.9480887751,NA,"American English","VSH_Exp2","2016_Mar_02_1804",NA
"Recordings/tuta.wav","no","t","t","u","yes","a","tuta","Training","alveolar","TrainingItems",1,48,148,21,NA,NA,NA,NA,NA,NA,NA,NA,NA,NA,17,FALSE,21,59.9480887751,NA,"American English","VSH_Exp2","2016_Mar_02_1804",NA
"Recordings/didu.wav","yes","d","d","i","yes","u","didu","Training","alveolar","TrainingItems",1,49,149,83,NA,NA,NA,NA,NA,NA,NA,NA,NA,NA,17,FALSE,21,59.9480887751,NA,"American English","VSH_Exp2","2016_Mar_02_1804",NA
"Recordings/vuvi.wav","yes","v","v","u","no","i","vuvi","Training","bilabial","TrainingItems",1,50,150,42,NA,NA,NA,NA,NA,NA,NA,NA,NA,NA,17,FALSE,21,59.9480887751,NA,"American English","VSH_Exp2","2016_Mar_02_1804",NA
"Recordings/dubu.wav","yes","d","b","u","yes","u","dubu","Training","alveolar","TrainingItems",1,51,151,71,NA,NA,NA,NA,NA,NA,NA,NA,NA,NA,17,FALSE,21,59.9480887751,NA,"American English","VSH_Exp2","2016_Mar_02_1804",NA
"Recordings/tipi.wav","no","t","p","i","yes","i","tipi","Training","alveolar","TrainingItems",1,52,152,77,NA,NA,NA,NA,NA,NA,NA,NA,NA,NA,17,FALSE,21,59.9480887751,NA,"American English","VSH_Exp2","2016_Mar_02_1804",NA
"Recordings/piti.wav","no","p","t","i","yes","i","piti","Training","bilabial","TrainingItems",1,53,153,63,NA,NA,NA,NA,NA,NA,NA,NA,NA,NA,17,FALSE,21,59.9480887751,NA,"American English","VSH_Exp2","2016_Mar_02_1804",NA
"Recordings/diba.wav","yes","d","b","i","yes","a","diba","Training","alveolar","TrainingItems",1,54,154,59,NA,NA,NA,NA,NA,NA,NA,NA,NA,NA,17,FALSE,21,59.9480887751,NA,"American English","VSH_Exp2","2016_Mar_02_1804",NA
"Recordings/fasu.wav","no","f","s","a","no","u","fasu","Training","bilabial","TrainingItems",1,55,155,95,NA,NA,NA,NA,NA,NA,NA,NA,NA,NA,17,FALSE,21,59.9480887751,NA,"American English","VSH_Exp2","2016_Mar_02_1804",NA
"Recordings/daba.wav","yes","d","b","a","yes","a","daba","Training","alveolar","TrainingItems",1,56,156,70,NA,NA,NA,NA,NA,NA,NA,NA,NA,NA,17,FALSE,21,59.9480887751,NA,"American English","VSH_Exp2","2016_Mar_02_1804",NA
"Recordings/titi.wav","no","t","t","i","yes","i","titi","Training","alveolar","TrainingItems",1,57,157,65,NA,NA,NA,NA,NA,NA,NA,NA,NA,NA,17,FALSE,21,59.9480887751,NA,"American English","VSH_Exp2","2016_Mar_02_1804",NA
"Recordings/dudi.wav","yes","d","d","u","yes","i","dudi","Training","alveolar","TrainingItems",1,58,158,33,NA,NA,NA,NA,NA,NA,NA,NA,NA,NA,17,FALSE,21,59.9480887751,NA,"American English","VSH_Exp2","2016_Mar_02_1804",NA
"Recordings/babi.wav","yes","b","b","a","yes","i","babi","Training","bilabial","TrainingItems",1,59,159,47,NA,NA,NA,NA,NA,NA,NA,NA,NA,NA,17,FALSE,21,59.9480887751,NA,"American English","VSH_Exp2","2016_Mar_02_1804",NA
"Recordings/baba.wav","yes","b","b","a","yes","a","baba","Training","bilabial","TrainingItems",1,60,160,8,NA,NA,NA,NA,NA,NA,NA,NA,NA,NA,17,FALSE,21,59.9480887751,NA,"American English","VSH_Exp2","2016_Mar_02_1804",NA
"Recordings/sasu.wav","no","s","s","a","no","u","sasu","Training","alveolar","TrainingItems",1,61,161,12,NA,NA,NA,NA,NA,NA,NA,NA,NA,NA,17,FALSE,21,59.9480887751,NA,"American English","VSH_Exp2","2016_Mar_02_1804",NA
"Recordings/tatu.wav","no","t","t","a","yes","u","tatu","Training","alveolar","TrainingItems",1,62,162,7,NA,NA,NA,NA,NA,NA,NA,NA,NA,NA,17,FALSE,21,59.9480887751,NA,"American English","VSH_Exp2","2016_Mar_02_1804",NA
"Recordings/buba.wav","yes","b","b","u","yes","a","buba","Training","bilabial","TrainingItems",1,63,163,31,NA,NA,NA,NA,NA,NA,NA,NA,NA,NA,17,FALSE,21,59.9480887751,NA,"American English","VSH_Exp2","2016_Mar_02_1804",NA
"Recordings/tupa.wav","no","t","p","u","yes","a","tupa","Training","alveolar","TrainingItems",1,64,164,52,NA,NA,NA,NA,NA,NA,NA,NA,NA,NA,17,FALSE,21,59.9480887751,NA,"American English","VSH_Exp2","2016_Mar_02_1804",NA
"Recordings/fisu.wav","no","f","s","i","no","u","fisu","Training","bilabial","TrainingItems",1,65,165,2,NA,NA,NA,NA,NA,NA,NA,NA,NA,NA,17,FALSE,21,59.9480887751,NA,"American English","VSH_Exp2","2016_Mar_02_1804",NA
"Recordings/puta.wav","no","p","t","u","yes","a","puta","Training","bilabial","TrainingItems",1,66,166,68,NA,NA,NA,NA,NA,NA,NA,NA,NA,NA,17,FALSE,21,59.9480887751,NA,"American English","VSH_Exp2","2016_Mar_02_1804",NA
"Recordings/dadu.wav","yes","d","d","a","yes","u","dadu","Training","alveolar","TrainingItems",1,67,167,30,NA,NA,NA,NA,NA,NA,NA,NA,NA,NA,17,FALSE,21,59.9480887751,NA,"American English","VSH_Exp2","2016_Mar_02_1804",NA
"Recordings/zuzi.wav","yes","z","z","u","no","i","zuzi","Training","alveolar","TrainingItems",1,68,168,87,NA,NA,NA,NA,NA,NA,NA,NA,NA,NA,17,FALSE,21,59.9480887751,NA,"American English","VSH_Exp2","2016_Mar_02_1804",NA
"Recordings/dabi.wav","yes","d","b","a","yes","i","dabi","Training","alveolar","TrainingItems",1,69,169,34,NA,NA,NA,NA,NA,NA,NA,NA,NA,NA,17,FALSE,21,59.9480887751,NA,"American English","VSH_Exp2","2016_Mar_02_1804",NA
"Recordings/safu.wav","no","s","f","a","no","u","safu","Training","alveolar","TrainingItems",1,70,170,43,NA,NA,NA,NA,NA,NA,NA,NA,NA,NA,17,FALSE,21,59.9480887751,NA,"American English","VSH_Exp2","2016_Mar_02_1804",NA
"Recordings/sufa.wav","no","s","f","u","no","a","sufa","Training","alveolar","TrainingItems",1,71,171,80,NA,NA,NA,NA,NA,NA,NA,NA,NA,NA,17,FALSE,21,59.9480887751,NA,"American English","VSH_Exp2","2016_Mar_02_1804",NA
"Recordings/sisi.wav","no","s","s","i","no","i","sisi","Training","alveolar","TrainingItems",1,72,172,13,NA,NA,NA,NA,NA,NA,NA,NA,NA,NA,17,FALSE,21,59.9480887751,NA,"American English","VSH_Exp2","2016_Mar_02_1804",NA
"Recordings/zuzu.wav","yes","z","z","u","no","u","zuzu","Training","alveolar","TrainingItems",1,73,173,20,NA,NA,NA,NA,NA,NA,NA,NA,NA,NA,17,FALSE,21,59.9480887751,NA,"American English","VSH_Exp2","2016_Mar_02_1804",NA
"Recordings/putu.wav","no","p","t","u","yes","u","putu","Training","bilabial","TrainingItems",1,74,174,73,NA,NA,NA,NA,NA,NA,NA,NA,NA,NA,17,FALSE,21,59.9480887751,NA,"American English","VSH_Exp2","2016_Mar_02_1804",NA
"Recordings/tipu.wav","no","t","p","i","yes","u","tipu","Training","alveolar","TrainingItems",1,75,175,27,NA,NA,NA,NA,NA,NA,NA,NA,NA,NA,17,FALSE,21,59.9480887751,NA,"American English","VSH_Exp2","2016_Mar_02_1804",NA
"Recordings/fafa.wav","no","f","f","a","no","a","fafa","Training","bilabial","TrainingItems",1,76,176,92,NA,NA,NA,NA,NA,NA,NA,NA,NA,NA,17,FALSE,21,59.9480887751,NA,"American English","VSH_Exp2","2016_Mar_02_1804",NA
"Recordings/pipi.wav","no","p","p","i","yes","i","pipi","Training","bilabial","TrainingItems",1,77,177,32,NA,NA,NA,NA,NA,NA,NA,NA,NA,NA,17,FALSE,21,59.9480887751,NA,"American English","VSH_Exp2","2016_Mar_02_1804",NA
"Recordings/dabu.wav","yes","d","b","a","yes","u","dabu","Training","alveolar","TrainingItems",1,78,178,25,NA,NA,NA,NA,NA,NA,NA,NA,NA,NA,17,FALSE,21,59.9480887751,NA,"American English","VSH_Exp2","2016_Mar_02_1804",NA
"Recordings/vuva.wav","yes","v","v","u","no","a","vuva","Training","bilabial","TrainingItems",1,79,179,99,NA,NA,NA,NA,NA,NA,NA,NA,NA,NA,17,FALSE,21,59.9480887751,NA,"American English","VSH_Exp2","2016_Mar_02_1804",NA
"Recordings/vavu.wav","yes","v","v","a","no","u","vavu","Training","bilabial","TrainingItems",1,80,180,44,NA,NA,NA,NA,NA,NA,NA,NA,NA,NA,17,FALSE,21,59.9480887751,NA,"American English","VSH_Exp2","2016_Mar_02_1804",NA
"Recordings/tutu.wav","no","t","t","u","yes","u","tutu","Training","alveolar","TrainingItems",1,81,181,18,NA,NA,NA,NA,NA,NA,NA,NA,NA,NA,17,FALSE,21,59.9480887751,NA,"American English","VSH_Exp2","2016_Mar_02_1804",NA
"Recordings/tati.wav","no","t","t","a","yes","i","tati","Training","alveolar","TrainingItems",1,82,182,28,NA,NA,NA,NA,NA,NA,NA,NA,NA,NA,17,FALSE,21,59.9480887751,NA,"American English","VSH_Exp2","2016_Mar_02_1804",NA
"Recordings/sufi.wav","no","s","f","u","no","i","sufi","Training","alveolar","TrainingItems",1,83,183,4,NA,NA,NA,NA,NA,NA,NA,NA,NA,NA,17,FALSE,21,59.9480887751,NA,"American English","VSH_Exp2","2016_Mar_02_1804",NA
"Recordings/tupi.wav","no","t","p","u","yes","i","tupi","Training","alveolar","TrainingItems",1,84,184,94,NA,NA,NA,NA,NA,NA,NA,NA,NA,NA,17,FALSE,21,59.9480887751,NA,"American English","VSH_Exp2","2016_Mar_02_1804",NA
"Recordings/dida.wav","yes","d","d","i","yes","a","dida","Training","alveolar","TrainingItems",1,85,185,62,NA,NA,NA,NA,NA,NA,NA,NA,NA,NA,17,FALSE,21,59.9480887751,NA,"American English","VSH_Exp2","2016_Mar_02_1804",NA
"Recordings/bidu.wav","yes","b","d","i","yes","u","bidu","Training","bilabial","TrainingItems",1,86,186,67,NA,NA,NA,NA,NA,NA,NA,NA,NA,NA,17,FALSE,21,59.9480887751,NA,"American English","VSH_Exp2","2016_Mar_02_1804",NA
"Recordings/tita.wav","no","t","t","i","yes","a","tita","Training","alveolar","TrainingItems",1,87,187,9,NA,NA,NA,NA,NA,NA,NA,NA,NA,NA,17,FALSE,21,59.9480887751,NA,"American English","VSH_Exp2","2016_Mar_02_1804",NA
"Recordings/sasi.wav","no","s","s","a","no","i","sasi","Training","alveolar","TrainingItems",1,88,188,26,NA,NA,NA,NA,NA,NA,NA,NA,NA,NA,17,FALSE,21,59.9480887751,NA,"American English","VSH_Exp2","2016_Mar_02_1804",NA
"Recordings/fusu.wav","no","f","s","u","no","u","fusu","Training","bilabial","TrainingItems",1,89,189,90,NA,NA,NA,NA,NA,NA,NA,NA,NA,NA,17,FALSE,21,59.9480887751,NA,"American English","VSH_Exp2","2016_Mar_02_1804",NA
"Recordings/fusi.wav","no","f","s","u","no","i","fusi","Training","bilabial","TrainingItems",1,90,190,23,NA,NA,NA,NA,NA,NA,NA,NA,NA,NA,17,FALSE,21,59.9480887751,NA,"American English","VSH_Exp2","2016_Mar_02_1804",NA
"Recordings/fufa.wav","no","f","f","u","no","a","fufa","Training","bilabial","TrainingItems",1,91,191,39,NA,NA,NA,NA,NA,NA,NA,NA,NA,NA,17,FALSE,21,59.9480887751,NA,"American English","VSH_Exp2","2016_Mar_02_1804",NA
"Recordings/tapu.wav","no","t","p","a","yes","u","tapu","Training","alveolar","TrainingItems",1,92,192,81,NA,NA,NA,NA,NA,NA,NA,NA,NA,NA,17,FALSE,21,59.9480887751,NA,"American English","VSH_Exp2","2016_Mar_02_1804",NA
"Recordings/buda.wav","yes","b","d","u","yes","a","buda","Training","bilabial","TrainingItems",1,93,193,51,NA,NA,NA,NA,NA,NA,NA,NA,NA,NA,17,FALSE,21,59.9480887751,NA,"American English","VSH_Exp2","2016_Mar_02_1804",NA
"Recordings/zizu.wav","yes","z","z","i","no","u","zizu","Training","alveolar","TrainingItems",1,94,194,57,NA,NA,NA,NA,NA,NA,NA,NA,NA,NA,17,FALSE,21,59.9480887751,NA,"American English","VSH_Exp2","2016_Mar_02_1804",NA
"Recordings/zaza.wav","yes","z","z","a","no","a","zaza","Training","alveolar","TrainingItems",1,95,195,55,NA,NA,NA,NA,NA,NA,NA,NA,NA,NA,17,FALSE,21,59.9480887751,NA,"American English","VSH_Exp2","2016_Mar_02_1804",NA
"Recordings/vivu.wav","yes","v","v","i","no","u","vivu","Training","bilabial","TrainingItems",1,96,196,10,NA,NA,NA,NA,NA,NA,NA,NA,NA,NA,17,FALSE,21,59.9480887751,NA,"American English","VSH_Exp2","2016_Mar_02_1804",NA
"Recordings/vava.wav","yes","v","v","a","no","a","vava","Training","bilabial","TrainingItems",1,97,197,60,NA,NA,NA,NA,NA,NA,NA,NA,NA,NA,17,FALSE,21,59.9480887751,NA,"American English","VSH_Exp2","2016_Mar_02_1804",NA
"Recordings/fafi.wav","no","f","f","a","no","i","fafi","Training","bilabial","TrainingItems",1,98,198,82,NA,NA,NA,NA,NA,NA,NA,NA,NA,NA,17,FALSE,21,59.9480887751,NA,"American English","VSH_Exp2","2016_Mar_02_1804",NA
"Recordings/susi.wav","no","s","s","u","no","i","susi","Training","alveolar","TrainingItems",1,99,199,1,NA,NA,NA,NA,NA,NA,NA,NA,NA,NA,17,FALSE,21,59.9480887751,NA,"American English","VSH_Exp2","2016_Mar_02_1804",NA
NA,NA,NA,NA,NA,NA,NA,NA,NA,NA,NA,NA,NA,NA,NA,NA,NA,NA,NA,NA,NA,"space",10.8304030895,NA,NA,17,FALSE,21,59.9480887751,NA,"American English","VSH_Exp2","2016_Mar_02_1804",NA
"Recordings/titu.wav","no","t","t","i","yes","u","titu","Test","alveolar","NewWordTestStimuli",NA,NA,NA,NA,0,0,0,27,NA,NA,NA,NA,"Yes",3.89,17,FALSE,21,59.9480887751,NA,"American English","VSH_Exp2","2016_Mar_02_1804",NA
"Recordings/vada.wav","yes","v","d","a","no","a","vada","Controls","bilabial","VoicingControls",NA,NA,NA,NA,0,1,1,47,NA,NA,NA,NA,"No",5.325,17,FALSE,21,59.9480887751,NA,"American English","VSH_Exp2","2016_Mar_02_1804",NA
"Recordings/bipa.wav","yes","b","p","i","yes","a","bipa","Controls","bilabial","StopControls",NA,NA,NA,NA,0,2,2,30,NA,NA,NA,NA,"Yes",7.577,17,FALSE,21,59.9480887751,NA,"American English","VSH_Exp2","2016_Mar_02_1804",NA
"Recordings/diba.wav","yes","d","b","i","yes","a","diba","Test","alveolar","OldTestStimuli",NA,NA,NA,NA,0,3,3,6,NA,NA,NA,NA,"Yes",0.969,17,FALSE,21,59.9480887751,NA,"American English","VSH_Exp2","2016_Mar_02_1804",NA
"Recordings/pufu.wav","no","p","f","u","yes","u","pufu","Controls","bilabial","VoicingControls",NA,NA,NA,NA,0,4,4,43,NA,NA,NA,NA,"No",1.822,17,FALSE,21,59.9480887751,NA,"American English","VSH_Exp2","2016_Mar_02_1804",NA
"Recordings/fubi.wav","no","f","b","u","no","i","fubi","Controls","bilabial","NoPatternControls",NA,NA,NA,NA,0,5,5,52,NA,NA,NA,NA,"Yes",1.921,17,FALSE,21,59.9480887751,NA,"American English","VSH_Exp2","2016_Mar_02_1804",NA
"Recordings/viza.wav","yes","v","z","i","no","a","viza","Test","bilabial","NewConsTestStimuli",NA,NA,NA,NA,0,6,6,12,NA,NA,NA,NA,"Yes",2.421,17,FALSE,21,59.9480887751,NA,"American English","VSH_Exp2","2016_Mar_02_1804",NA
"Recordings/fafi.wav","no","f","f","a","no","i","fafi","Test","bilabial","OldTestStimuli",NA,NA,NA,NA,0,7,7,7,NA,NA,NA,NA,"Yes",0.904,17,FALSE,21,59.9480887751,NA,"American English","VSH_Exp2","2016_Mar_02_1804",NA
"Recordings/bidi.wav","yes","b","d","i","yes","i","bidi","Test","bilabial","OldTestStimuli",NA,NA,NA,NA,0,8,8,8,NA,NA,NA,NA,"No",1.821,17,FALSE,21,59.9480887751,NA,"American English","VSH_Exp2","2016_Mar_02_1804",NA
"Recordings/zavi.wav","yes","z","v","a","no","i","zavi","Test","alveolar","NewConsTestStimuli",NA,NA,NA,NA,0,9,9,14,NA,NA,NA,NA,"No",2.255,17,FALSE,21,59.9480887751,NA,"American English","VSH_Exp2","2016_Mar_02_1804",NA
"Recordings/papa.wav","no","p","p","a","yes","a","papa","Test","bilabial","NewWordTestStimuli",NA,NA,NA,NA,0,10,10,26,NA,NA,NA,NA,"Yes",3.257,17,FALSE,21,59.9480887751,NA,"American English","VSH_Exp2","2016_Mar_02_1804",NA
"Recordings/bufu.wav","yes","b","f","u","yes","u","bufu","Controls","bilabial","NoPatternControls",NA,NA,NA,NA,0,11,11,58,NA,NA,NA,NA,"Yes",1.253,17,FALSE,21,59.9480887751,NA,"American English","VSH_Exp2","2016_Mar_02_1804",NA
"Recordings/suda.wav","no","s","d","u","no","a","suda","Controls","alveolar","NoPatternControls",NA,NA,NA,NA,0,12,12,56,NA,NA,NA,NA,"No",2.589,17,FALSE,21,59.9480887751,NA,"American English","VSH_Exp2","2016_Mar_02_1804",NA
"Recordings/tuba.wav","no","t","b","u","yes","a","tuba","Controls","alveolar","StopControls",NA,NA,NA,NA,0,13,13,35,NA,NA,NA,NA,"Yes",1.954,17,FALSE,21,59.9480887751,NA,"American English","VSH_Exp2","2016_Mar_02_1804",NA
"Recordings/sazu.wav","no","s","z","a","no","u","sazu","Controls","alveolar","StopControls",NA,NA,NA,NA,0,14,14,31,NA,NA,NA,NA,"Yes",1.419,17,FALSE,21,59.9480887751,NA,"American English","VSH_Exp2","2016_Mar_02_1804",NA
"Recordings/bapa.wav","yes","b","p","a","yes","a","bapa","Controls","bilabial","StopControls",NA,NA,NA,NA,0,15,15,38,NA,NA,NA,NA,"Yes",0.988,17,FALSE,21,59.9480887751,NA,"American English","VSH_Exp2","2016_Mar_02_1804",NA
"Recordings/vuvi.wav","yes","v","v","u","no","i","vuvi","Test","bilabial","OldTestStimuli",NA,NA,NA,NA,0,16,16,3,NA,NA,NA,NA,"Yes",0.838,17,FALSE,21,59.9480887751,NA,"American English","VSH_Exp2","2016_Mar_02_1804",NA
"Recordings/biva.wav","yes","b","v","i","yes","a","biva","Controls","bilabial","VoicingControls",NA,NA,NA,NA,0,17,17,40,NA,NA,NA,NA,"Yes",0.988,17,FALSE,21,59.9480887751,NA,"American English","VSH_Exp2","2016_Mar_02_1804",NA
"Recordings/busu.wav","yes","b","s","u","yes","u","busu","Controls","bilabial","NoPatternControls",NA,NA,NA,NA,0,18,18,50,NA,NA,NA,NA,"No",1.788,17,FALSE,21,59.9480887751,NA,"American English","VSH_Exp2","2016_Mar_02_1804",NA
"Recordings/bava.wav","yes","b","v","a","yes","a","bava","Controls","bilabial","VoicingControls",NA,NA,NA,NA,0,19,19,48,NA,NA,NA,NA,"Yes",1.786,17,FALSE,21,59.9480887751,NA,"American English","VSH_Exp2","2016_Mar_02_1804",NA
"Recordings/zuvu.wav","yes","z","v","u","no","u","zuvu","Test","alveolar","NewConsTestStimuli",NA,NA,NA,NA,0,20,20,18,NA,NA,NA,NA,"Yes",3.59,17,FALSE,21,59.9480887751,NA,"American English","VSH_Exp2","2016_Mar_02_1804",NA
"Recordings/vasa.wav","yes","v","s","a","no","a","vasa","Controls","bilabial","StopControls",NA,NA,NA,NA,0,21,21,37,NA,NA,NA,NA,"No",2.271,17,FALSE,21,59.9480887751,NA,"American English","VSH_Exp2","2016_Mar_02_1804",NA
"Recordings/dubu.wav","yes","d","b","u","yes","u","dubu","Test","alveolar","OldTestStimuli",NA,NA,NA,NA,0,22,22,9,NA,NA,NA,NA,"Yes",0.969,17,FALSE,21,59.9480887751,NA,"American English","VSH_Exp2","2016_Mar_02_1804",NA
"Recordings/pata.wav","no","p","t","a","yes","a","pata","Test","bilabial","NewWordTestStimuli",NA,NA,NA,NA,0,23,23,21,NA,NA,NA,NA,"Yes",1.004,17,FALSE,21,59.9480887751,NA,"American English","VSH_Exp2","2016_Mar_02_1804",NA
"Recordings/siza.wav","no","s","z","i","no","a","siza","Controls","alveolar","StopControls",NA,NA,NA,NA,0,24,24,36,NA,NA,NA,NA,"Yes",1.003,17,FALSE,21,59.9480887751,NA,"American English","VSH_Exp2","2016_Mar_02_1804",NA
"Recordings/zava.wav","yes","z","v","a","no","a","zava","Test","alveolar","NewConsTestStimuli",NA,NA,NA,NA,0,25,25,11,NA,NA,NA,NA,"Yes",4.407,17,FALSE,21,59.9480887751,NA,"American English","VSH_Exp2","2016_Mar_02_1804",NA
"Recordings/zavu.wav","yes","z","v","a","no","u","zavu","Test","alveolar","NewConsTestStimuli",NA,NA,NA,NA,0,26,26,19,NA,NA,NA,NA,"Yes",1.103,17,FALSE,21,59.9480887751,NA,"American English","VSH_Exp2","2016_Mar_02_1804",NA
"Recordings/vuza.wav","yes","v","z","u","no","a","vuza","Test","bilabial","NewConsTestStimuli",NA,NA,NA,NA,0,27,27,15,NA,NA,NA,NA,"Yes",0.736,17,FALSE,21,59.9480887751,NA,"American English","VSH_Exp2","2016_Mar_02_1804",NA
"Recordings/tuvi.wav","no","t","v","u","yes","i","tuvi","Controls","alveolar","NoPatternControls",NA,NA,NA,NA,0,28,28,59,NA,NA,NA,NA,"Yes",1.703,17,FALSE,21,59.9480887751,NA,"American English","VSH_Exp2","2016_Mar_02_1804",NA
"Recordings/dadu.wav","yes","d","d","a","yes","u","dadu","Test","alveolar","OldTestStimuli",NA,NA,NA,NA,0,29,29,2,NA,NA,NA,NA,"Yes",0.92,17,FALSE,21,59.9480887751,NA,"American English","VSH_Exp2","2016_Mar_02_1804",NA
"Recordings/sufi.wav","no","s","f","u","no","i","sufi","Test","alveolar","OldTestStimuli",NA,NA,NA,NA,0,30,30,0,NA,NA,NA,NA,"No",1.971,17,FALSE,21,59.9480887751,NA,"American English","VSH_Exp2","2016_Mar_02_1804",NA
"Recordings/vuzi.wav","yes","v","z","u","no","i","vuzi","Test","bilabial","NewConsTestStimuli",NA,NA,NA,NA,0,31,31,16,NA,NA,NA,NA,"No",1.937,17,FALSE,21,59.9480887751,NA,"American English","VSH_Exp2","2016_Mar_02_1804",NA
"Recordings/fatu.wav","no","f","t","a","no","u","fatu","Controls","bilabial","VoicingControls",NA,NA,NA,NA,0,32,32,42,NA,NA,NA,NA,"Yes",1.086,17,FALSE,21,59.9480887751,NA,"American English","VSH_Exp2","2016_Mar_02_1804",NA
"Recordings/sipa.wav","no","s","p","i","no","a","sipa","Controls","alveolar","VoicingControls",NA,NA,NA,NA,0,33,33,41,NA,NA,NA,NA,"Yes",1.054,17,FALSE,21,59.9480887751,NA,"American English","VSH_Exp2","2016_Mar_02_1804",NA
"Recordings/tibu.wav","no","t","b","i","yes","u","tibu","Controls","alveolar","StopControls",NA,NA,NA,NA,0,34,34,39,NA,NA,NA,NA,"Yes",0.818,17,FALSE,21,59.9480887751,NA,"American English","VSH_Exp2","2016_Mar_02_1804",NA
"Recordings/fifi.wav","no","f","f","i","no","i","fifi","Test","bilabial","OldTestStimuli",NA,NA,NA,NA,0,35,35,5,NA,NA,NA,NA,"Yes",1.069,17,FALSE,21,59.9480887751,NA,"American English","VSH_Exp2","2016_Mar_02_1804",NA
"Recordings/zuvi.wav","yes","z","v","u","no","i","zuvi","Test","alveolar","NewConsTestStimuli",NA,NA,NA,NA,0,36,36,17,NA,NA,NA,NA,"Yes",1.237,17,FALSE,21,59.9480887751,NA,"American English","VSH_Exp2","2016_Mar_02_1804",NA
"Recordings/tiba.wav","no","t","b","i","yes","a","tiba","Controls","alveolar","StopControls",NA,NA,NA,NA,0,37,37,34,NA,NA,NA,NA,"Yes",1.12,17,FALSE,21,59.9480887751,NA,"American English","VSH_Exp2","2016_Mar_02_1804",NA
"Recordings/tifa.wav","no","t","f","i","yes","a","tifa","Controls","alveolar","VoicingControls",NA,NA,NA,NA,0,38,38,49,NA,NA,NA,NA,"Yes",1.088,17,FALSE,21,59.9480887751,NA,"American English","VSH_Exp2","2016_Mar_02_1804",NA
"Recordings/tafi.wav","no","t","f","a","yes","i","tafi","Controls","alveolar","VoicingControls",NA,NA,NA,NA,0,39,39,44,NA,NA,NA,NA,"No",1.689,17,FALSE,21,59.9480887751,NA,"American English","VSH_Exp2","2016_Mar_02_1804",NA
"Recordings/daba.wav","yes","d","b","a","yes","a","daba","Test","alveolar","OldTestStimuli",NA,NA,NA,NA,0,40,40,4,NA,NA,NA,NA,"Yes",0.954,17,FALSE,21,59.9480887751,NA,"American English","VSH_Exp2","2016_Mar_02_1804",NA
"Recordings/tisa.wav","no","t","s","i","yes","a","tisa","Controls","alveolar","VoicingControls",NA,NA,NA,NA,0,41,41,45,NA,NA,NA,NA,"Yes",0.837,17,FALSE,21,59.9480887751,NA,"American English","VSH_Exp2","2016_Mar_02_1804",NA
"Recordings/bada.wav","yes","b","d","a","yes","a","bada","Test","bilabial","NewWordTestStimuli",NA,NA,NA,NA,0,42,42,28,NA,NA,NA,NA,"Yes",1.003,17,FALSE,21,59.9480887751,NA,"American English","VSH_Exp2","2016_Mar_02_1804",NA
"Recordings/tavu.wav","no","t","v","a","yes","u","tavu","Controls","alveolar","NoPatternControls",NA,NA,NA,NA,0,43,43,55,NA,NA,NA,NA,"Yes",1.054,17,FALSE,21,59.9480887751,NA,"American English","VSH_Exp2","2016_Mar_02_1804",NA
"Recordings/faza.wav","no","f","z","a","no","a","faza","Controls","bilabial","StopControls",NA,NA,NA,NA,0,44,44,32,NA,NA,NA,NA,"No",2.105,17,FALSE,21,59.9480887751,NA,"American English","VSH_Exp2","2016_Mar_02_1804",NA
"Recordings/papi.wav","no","p","p","a","yes","i","papi","Test","bilabial","NewWordTestStimuli",NA,NA,NA,NA,0,45,45,29,NA,NA,NA,NA,"Yes",1.803,17,FALSE,21,59.9480887751,NA,"American English","VSH_Exp2","2016_Mar_02_1804",NA
"Recordings/siti.wav","no","s","t","i","no","i","siti","Controls","alveolar","VoicingControls",NA,NA,NA,NA,0,46,46,46,NA,NA,NA,NA,"No",1.504,17,FALSE,21,59.9480887751,NA,"American English","VSH_Exp2","2016_Mar_02_1804",NA
"Recordings/vazu.wav","yes","v","z","a","no","u","vazu","Test","bilabial","NewConsTestStimuli",NA,NA,NA,NA,0,47,47,10,NA,NA,NA,NA,"Yes",1.121,17,FALSE,21,59.9480887751,NA,"American English","VSH_Exp2","2016_Mar_02_1804",NA
"Recordings/pita.wav","no","p","t","i","yes","a","pita","Test","bilabial","NewWordTestStimuli",NA,NA,NA,NA,0,48,48,24,NA,NA,NA,NA,"Yes",2.822,17,FALSE,21,59.9480887751,NA,"American English","VSH_Exp2","2016_Mar_02_1804",NA
"Recordings/vizu.wav","yes","v","z","i","no","u","vizu","Test","bilabial","NewConsTestStimuli",NA,NA,NA,NA,0,49,49,13,NA,NA,NA,NA,"Yes",1.171,17,FALSE,21,59.9480887751,NA,"American English","VSH_Exp2","2016_Mar_02_1804",NA
"Recordings/pubu.wav","no","p","b","u","yes","u","pubu","Controls","bilabial","StopControls",NA,NA,NA,NA,0,50,50,33,NA,NA,NA,NA,"No",1.971,17,FALSE,21,59.9480887751,NA,"American English","VSH_Exp2","2016_Mar_02_1804",NA
"Recordings/fisi.wav","no","f","s","i","no","i","fisi","Test","bilabial","NewWordTestStimuli",NA,NA,NA,NA,0,51,51,22,NA,NA,NA,NA,"Yes",1.103,17,FALSE,21,59.9480887751,NA,"American English","VSH_Exp2","2016_Mar_02_1804",NA
"Recordings/badu.wav","yes","b","d","a","yes","u","badu","Test","bilabial","NewWordTestStimuli",NA,NA,NA,NA,0,52,52,20,NA,NA,NA,NA,"Yes",0.953,17,FALSE,21,59.9480887751,NA,"American English","VSH_Exp2","2016_Mar_02_1804",NA
"Recordings/fufu.wav","no","f","f","u","no","u","fufu","Test","bilabial","NewWordTestStimuli",NA,NA,NA,NA,0,53,53,23,NA,NA,NA,NA,"No",1.488,17,FALSE,21,59.9480887751,NA,"American English","VSH_Exp2","2016_Mar_02_1804",NA
"Recordings/subu.wav","no","s","b","u","no","u","subu","Controls","alveolar","NoPatternControls",NA,NA,NA,NA,0,54,54,51,NA,NA,NA,NA,"No",1.687,17,FALSE,21,59.9480887751,NA,"American English","VSH_Exp2","2016_Mar_02_1804",NA
"Recordings/vitu.wav","yes","v","t","i","no","u","vitu","Controls","bilabial","NoPatternControls",NA,NA,NA,NA,0,55,55,57,NA,NA,NA,NA,"Yes",1.62,17,FALSE,21,59.9480887751,NA,"American English","VSH_Exp2","2016_Mar_02_1804",NA
"Recordings/zizu.wav","yes","z","z","i","no","u","zizu","Test","alveolar","OldTestStimuli",NA,NA,NA,NA,0,56,56,1,NA,NA,NA,NA,"Yes",1.153,17,FALSE,21,59.9480887751,NA,"American English","VSH_Exp2","2016_Mar_02_1804",NA
"Recordings/pavu.wav","no","p","v","a","yes","u","pavu","Controls","bilabial","NoPatternControls",NA,NA,NA,NA,0,57,57,53,NA,NA,NA,NA,"No",1.421,17,FALSE,21,59.9480887751,NA,"American English","VSH_Exp2","2016_Mar_02_1804",NA
"Recordings/tuva.wav","no","t","v","u","yes","a","tuva","Controls","alveolar","NoPatternControls",NA,NA,NA,NA,0,58,58,54,NA,NA,NA,NA,"Yes",1.602,17,FALSE,21,59.9480887751,NA,"American English","VSH_Exp2","2016_Mar_02_1804",NA
"Recordings/zazu.wav","yes","z","z","a","no","u","zazu","Test","alveolar","NewWordTestStimuli",NA,NA,NA,NA,0,59,59,25,NA,NA,NA,NA,"Yes",3.038,17,FALSE,21,59.9480887751,NA,"American English","VSH_Exp2","2016_Mar_02_1804",NA
