"SOUND","VOICING","SEGMENT","SEGMENT3","SEGMENT2","STOP","SEGMENT4","STIMULUS","GENERAL_TYPE","PLACE","TYPE","trials.thisRepN","trials.thisTrialN","trials.thisN","trials.thisIndex","trials_2.thisRepN","trials_2.thisTrialN","trials_2.thisN","trials_2.thisIndex","SpaceBar.keys","SpaceBar.rt","key_resp_2.keys","key_resp_2.rt","rating.response","rating.rt","participant","Gender","Age","frameRate","OtherLanguages","NativeLanguage","expName","date","X34"
NA,NA,NA,NA,NA,NA,NA,NA,NA,NA,NA,NA,NA,NA,NA,NA,NA,NA,NA,"space",2.7711660862,NA,NA,NA,NA,1,FALSE,18,60.0737905906,NA,"American English","VSH_Exp2","2016_Mar_23_1803",NA
"Recordings/baba.wav","yes","b","b","a","yes","a","baba","Training","bilabial","TrainingItems",0,0,0,73,NA,NA,NA,NA,NA,NA,NA,NA,NA,NA,1,FALSE,18,60.0737905906,NA,"American English","VSH_Exp2","2016_Mar_23_1803",NA
"Recordings/fufu.wav","no","f","f","u","no","u","fufu","Training","bilabial","TrainingItems",0,1,1,90,NA,NA,NA,NA,NA,NA,NA,NA,NA,NA,1,FALSE,18,60.0737905906,NA,"American English","VSH_Exp2","2016_Mar_23_1803",NA
"Recordings/pitu.wav","no","p","t","i","yes","u","pitu","Training","bilabial","TrainingItems",0,2,2,95,NA,NA,NA,NA,NA,NA,NA,NA,NA,NA,1,FALSE,18,60.0737905906,NA,"American English","VSH_Exp2","2016_Mar_23_1803",NA
"Recordings/budi.wav","yes","b","d","u","yes","i","budi","Training","bilabial","TrainingItems",0,3,3,63,NA,NA,NA,NA,NA,NA,NA,NA,NA,NA,1,FALSE,18,60.0737905906,NA,"American English","VSH_Exp2","2016_Mar_23_1803",NA
"Recordings/dabi.wav","yes","d","b","a","yes","i","dabi","Training","alveolar","TrainingItems",0,4,4,91,NA,NA,NA,NA,NA,NA,NA,NA,NA,NA,1,FALSE,18,60.0737905906,NA,"American English","VSH_Exp2","2016_Mar_23_1803",NA
"Recordings/zavi.wav","yes","z","v","a","no","i","zavi","Training","alveolar","TrainingItems",0,5,5,38,NA,NA,NA,NA,NA,NA,NA,NA,NA,NA,1,FALSE,18,60.0737905906,NA,"American English","VSH_Exp2","2016_Mar_23_1803",NA
"Recordings/puti.wav","no","p","t","u","yes","i","puti","Training","bilabial","TrainingItems",0,6,6,27,NA,NA,NA,NA,NA,NA,NA,NA,NA,NA,1,FALSE,18,60.0737905906,NA,"American English","VSH_Exp2","2016_Mar_23_1803",NA
"Recordings/susi.wav","no","s","s","u","no","i","susi","Training","alveolar","TrainingItems",0,7,7,13,NA,NA,NA,NA,NA,NA,NA,NA,NA,NA,1,FALSE,18,60.0737905906,NA,"American English","VSH_Exp2","2016_Mar_23_1803",NA
"Recordings/papi.wav","no","p","p","a","yes","i","papi","Training","bilabial","TrainingItems",0,8,8,67,NA,NA,NA,NA,NA,NA,NA,NA,NA,NA,1,FALSE,18,60.0737905906,NA,"American English","VSH_Exp2","2016_Mar_23_1803",NA
"Recordings/badu.wav","yes","b","d","a","yes","u","badu","Training","bilabial","TrainingItems",0,9,9,98,NA,NA,NA,NA,NA,NA,NA,NA,NA,NA,1,FALSE,18,60.0737905906,NA,"American English","VSH_Exp2","2016_Mar_23_1803",NA
"Recordings/zaza.wav","yes","z","z","a","no","a","zaza","Training","alveolar","TrainingItems",0,10,10,45,NA,NA,NA,NA,NA,NA,NA,NA,NA,NA,1,FALSE,18,60.0737905906,NA,"American English","VSH_Exp2","2016_Mar_23_1803",NA
"Recordings/babu.wav","yes","b","b","a","yes","u","babu","Training","bilabial","TrainingItems",0,11,11,94,NA,NA,NA,NA,NA,NA,NA,NA,NA,NA,1,FALSE,18,60.0737905906,NA,"American English","VSH_Exp2","2016_Mar_23_1803",NA
"Recordings/tupi.wav","no","t","p","u","yes","i","tupi","Training","alveolar","TrainingItems",0,12,12,69,NA,NA,NA,NA,NA,NA,NA,NA,NA,NA,1,FALSE,18,60.0737905906,NA,"American English","VSH_Exp2","2016_Mar_23_1803",NA
"Recordings/dadu.wav","yes","d","d","a","yes","u","dadu","Training","alveolar","TrainingItems",0,13,13,16,NA,NA,NA,NA,NA,NA,NA,NA,NA,NA,1,FALSE,18,60.0737905906,NA,"American English","VSH_Exp2","2016_Mar_23_1803",NA
"Recordings/papa.wav","no","p","p","a","yes","a","papa","Training","bilabial","TrainingItems",0,14,14,68,NA,NA,NA,NA,NA,NA,NA,NA,NA,NA,1,FALSE,18,60.0737905906,NA,"American English","VSH_Exp2","2016_Mar_23_1803",NA
"Recordings/pita.wav","no","p","t","i","yes","a","pita","Training","bilabial","TrainingItems",0,15,15,88,NA,NA,NA,NA,NA,NA,NA,NA,NA,NA,1,FALSE,18,60.0737905906,NA,"American English","VSH_Exp2","2016_Mar_23_1803",NA
"Recordings/dabu.wav","yes","d","b","a","yes","u","dabu","Training","alveolar","TrainingItems",0,16,16,96,NA,NA,NA,NA,NA,NA,NA,NA,NA,NA,1,FALSE,18,60.0737905906,NA,"American English","VSH_Exp2","2016_Mar_23_1803",NA
"Recordings/vuza.wav","yes","v","z","u","no","a","vuza","Training","bilabial","TrainingItems",0,17,17,41,NA,NA,NA,NA,NA,NA,NA,NA,NA,NA,1,FALSE,18,60.0737905906,NA,"American English","VSH_Exp2","2016_Mar_23_1803",NA
"Recordings/tupu.wav","no","t","p","u","yes","u","tupu","Training","alveolar","TrainingItems",0,18,18,12,NA,NA,NA,NA,NA,NA,NA,NA,NA,NA,1,FALSE,18,60.0737905906,NA,"American English","VSH_Exp2","2016_Mar_23_1803",NA
"Recordings/dubi.wav","yes","d","b","u","yes","i","dubi","Training","alveolar","TrainingItems",0,19,19,18,NA,NA,NA,NA,NA,NA,NA,NA,NA,NA,1,FALSE,18,60.0737905906,NA,"American English","VSH_Exp2","2016_Mar_23_1803",NA
"Recordings/titi.wav","no","t","t","i","yes","i","titi","Training","alveolar","TrainingItems",0,20,20,21,NA,NA,NA,NA,NA,NA,NA,NA,NA,NA,1,FALSE,18,60.0737905906,NA,"American English","VSH_Exp2","2016_Mar_23_1803",NA
"Recordings/diba.wav","yes","d","b","i","yes","a","diba","Training","alveolar","TrainingItems",0,21,21,28,NA,NA,NA,NA,NA,NA,NA,NA,NA,NA,1,FALSE,18,60.0737905906,NA,"American English","VSH_Exp2","2016_Mar_23_1803",NA
"Recordings/vavi.wav","yes","v","v","a","no","i","vavi","Training","bilabial","TrainingItems",0,22,22,49,NA,NA,NA,NA,NA,NA,NA,NA,NA,NA,1,FALSE,18,60.0737905906,NA,"American English","VSH_Exp2","2016_Mar_23_1803",NA
"Recordings/vazu.wav","yes","v","z","a","no","u","vazu","Training","bilabial","TrainingItems",0,23,23,60,NA,NA,NA,NA,NA,NA,NA,NA,NA,NA,1,FALSE,18,60.0737905906,NA,"American English","VSH_Exp2","2016_Mar_23_1803",NA
"Recordings/didu.wav","yes","d","d","i","yes","u","didu","Training","alveolar","TrainingItems",0,24,24,51,NA,NA,NA,NA,NA,NA,NA,NA,NA,NA,1,FALSE,18,60.0737905906,NA,"American English","VSH_Exp2","2016_Mar_23_1803",NA
"Recordings/bibu.wav","yes","b","b","i","yes","u","bibu","Training","bilabial","TrainingItems",0,25,25,50,NA,NA,NA,NA,NA,NA,NA,NA,NA,NA,1,FALSE,18,60.0737905906,NA,"American English","VSH_Exp2","2016_Mar_23_1803",NA
"Recordings/dubu.wav","yes","d","b","u","yes","u","dubu","Training","alveolar","TrainingItems",0,26,26,93,NA,NA,NA,NA,NA,NA,NA,NA,NA,NA,1,FALSE,18,60.0737905906,NA,"American English","VSH_Exp2","2016_Mar_23_1803",NA
"Recordings/putu.wav","no","p","t","u","yes","u","putu","Training","bilabial","TrainingItems",0,27,27,85,NA,NA,NA,NA,NA,NA,NA,NA,NA,NA,1,FALSE,18,60.0737905906,NA,"American English","VSH_Exp2","2016_Mar_23_1803",NA
"Recordings/bidi.wav","yes","b","d","i","yes","i","bidi","Training","bilabial","TrainingItems",0,28,28,5,NA,NA,NA,NA,NA,NA,NA,NA,NA,NA,1,FALSE,18,60.0737905906,NA,"American English","VSH_Exp2","2016_Mar_23_1803",NA
"Recordings/duba.wav","yes","d","b","u","yes","a","duba","Training","alveolar","TrainingItems",0,29,29,42,NA,NA,NA,NA,NA,NA,NA,NA,NA,NA,1,FALSE,18,60.0737905906,NA,"American English","VSH_Exp2","2016_Mar_23_1803",NA
"Recordings/puta.wav","no","p","t","u","yes","a","puta","Training","bilabial","TrainingItems",0,30,30,80,NA,NA,NA,NA,NA,NA,NA,NA,NA,NA,1,FALSE,18,60.0737905906,NA,"American English","VSH_Exp2","2016_Mar_23_1803",NA
"Recordings/dadi.wav","yes","d","d","a","yes","i","dadi","Training","alveolar","TrainingItems",0,31,31,59,NA,NA,NA,NA,NA,NA,NA,NA,NA,NA,1,FALSE,18,60.0737905906,NA,"American English","VSH_Exp2","2016_Mar_23_1803",NA
"Recordings/viza.wav","yes","v","z","i","no","a","viza","Training","bilabial","TrainingItems",0,32,32,55,NA,NA,NA,NA,NA,NA,NA,NA,NA,NA,1,FALSE,18,60.0737905906,NA,"American English","VSH_Exp2","2016_Mar_23_1803",NA
"Recordings/zivi.wav","yes","z","v","i","no","i","zivi","Training","alveolar","TrainingItems",0,33,33,87,NA,NA,NA,NA,NA,NA,NA,NA,NA,NA,1,FALSE,18,60.0737905906,NA,"American English","VSH_Exp2","2016_Mar_23_1803",NA
"Recordings/pupa.wav","no","p","p","u","yes","a","pupa","Training","bilabial","TrainingItems",0,34,34,92,NA,NA,NA,NA,NA,NA,NA,NA,NA,NA,1,FALSE,18,60.0737905906,NA,"American English","VSH_Exp2","2016_Mar_23_1803",NA
"Recordings/sisu.wav","no","s","s","i","no","u","sisu","Training","alveolar","TrainingItems",0,35,35,25,NA,NA,NA,NA,NA,NA,NA,NA,NA,NA,1,FALSE,18,60.0737905906,NA,"American English","VSH_Exp2","2016_Mar_23_1803",NA
"Recordings/papu.wav","no","p","p","a","yes","u","papu","Training","bilabial","TrainingItems",0,36,36,66,NA,NA,NA,NA,NA,NA,NA,NA,NA,NA,1,FALSE,18,60.0737905906,NA,"American English","VSH_Exp2","2016_Mar_23_1803",NA
"Recordings/pupu.wav","no","p","p","u","yes","u","pupu","Training","bilabial","TrainingItems",0,37,37,58,NA,NA,NA,NA,NA,NA,NA,NA,NA,NA,1,FALSE,18,60.0737905906,NA,"American English","VSH_Exp2","2016_Mar_23_1803",NA
"Recordings/zavu.wav","yes","z","v","a","no","u","zavu","Training","alveolar","TrainingItems",0,38,38,10,NA,NA,NA,NA,NA,NA,NA,NA,NA,NA,1,FALSE,18,60.0737905906,NA,"American English","VSH_Exp2","2016_Mar_23_1803",NA
"Recordings/tati.wav","no","t","t","a","yes","i","tati","Training","alveolar","TrainingItems",0,39,39,48,NA,NA,NA,NA,NA,NA,NA,NA,NA,NA,1,FALSE,18,60.0737905906,NA,"American English","VSH_Exp2","2016_Mar_23_1803",NA
"Recordings/zazi.wav","yes","z","z","a","no","i","zazi","Training","alveolar","TrainingItems",0,40,40,32,NA,NA,NA,NA,NA,NA,NA,NA,NA,NA,1,FALSE,18,60.0737905906,NA,"American English","VSH_Exp2","2016_Mar_23_1803",NA
"Recordings/sasi.wav","no","s","s","a","no","i","sasi","Training","alveolar","TrainingItems",0,41,41,99,NA,NA,NA,NA,NA,NA,NA,NA,NA,NA,1,FALSE,18,60.0737905906,NA,"American English","VSH_Exp2","2016_Mar_23_1803",NA
"Recordings/bada.wav","yes","b","d","a","yes","a","bada","Training","bilabial","TrainingItems",0,42,42,14,NA,NA,NA,NA,NA,NA,NA,NA,NA,NA,1,FALSE,18,60.0737905906,NA,"American English","VSH_Exp2","2016_Mar_23_1803",NA
"Recordings/tapi.wav","no","t","p","a","yes","i","tapi","Training","alveolar","TrainingItems",0,43,43,71,NA,NA,NA,NA,NA,NA,NA,NA,NA,NA,1,FALSE,18,60.0737905906,NA,"American English","VSH_Exp2","2016_Mar_23_1803",NA
"Recordings/bidu.wav","yes","b","d","i","yes","u","bidu","Training","bilabial","TrainingItems",0,44,44,61,NA,NA,NA,NA,NA,NA,NA,NA,NA,NA,1,FALSE,18,60.0737905906,NA,"American English","VSH_Exp2","2016_Mar_23_1803",NA
"Recordings/vazi.wav","yes","v","z","a","no","i","vazi","Training","bilabial","TrainingItems",0,45,45,89,NA,NA,NA,NA,NA,NA,NA,NA,NA,NA,1,FALSE,18,60.0737905906,NA,"American English","VSH_Exp2","2016_Mar_23_1803",NA
"Recordings/pupi.wav","no","p","p","u","yes","i","pupi","Training","bilabial","TrainingItems",0,46,46,52,NA,NA,NA,NA,NA,NA,NA,NA,NA,NA,1,FALSE,18,60.0737905906,NA,"American English","VSH_Exp2","2016_Mar_23_1803",NA
"Recordings/fufi.wav","no","f","f","u","no","i","fufi","Training","bilabial","TrainingItems",0,47,47,54,NA,NA,NA,NA,NA,NA,NA,NA,NA,NA,1,FALSE,18,60.0737905906,NA,"American English","VSH_Exp2","2016_Mar_23_1803",NA
"Recordings/susa.wav","no","s","s","u","no","a","susa","Training","alveolar","TrainingItems",0,48,48,6,NA,NA,NA,NA,NA,NA,NA,NA,NA,NA,1,FALSE,18,60.0737905906,NA,"American English","VSH_Exp2","2016_Mar_23_1803",NA
"Recordings/titu.wav","no","t","t","i","yes","u","titu","Training","alveolar","TrainingItems",0,49,49,83,NA,NA,NA,NA,NA,NA,NA,NA,NA,NA,1,FALSE,18,60.0737905906,NA,"American English","VSH_Exp2","2016_Mar_23_1803",NA
"Recordings/dibu.wav","yes","d","b","i","yes","u","dibu","Training","alveolar","TrainingItems",0,50,50,43,NA,NA,NA,NA,NA,NA,NA,NA,NA,NA,1,FALSE,18,60.0737905906,NA,"American English","VSH_Exp2","2016_Mar_23_1803",NA
"Recordings/fifa.wav","no","f","f","i","no","a","fifa","Training","bilabial","TrainingItems",0,51,51,70,NA,NA,NA,NA,NA,NA,NA,NA,NA,NA,1,FALSE,18,60.0737905906,NA,"American English","VSH_Exp2","2016_Mar_23_1803",NA
"Recordings/viva.wav","yes","v","v","i","no","a","viva","Training","bilabial","TrainingItems",0,52,52,97,NA,NA,NA,NA,NA,NA,NA,NA,NA,NA,1,FALSE,18,60.0737905906,NA,"American English","VSH_Exp2","2016_Mar_23_1803",NA
"Recordings/vuzu.wav","yes","v","z","u","no","u","vuzu","Training","bilabial","TrainingItems",0,53,53,81,NA,NA,NA,NA,NA,NA,NA,NA,NA,NA,1,FALSE,18,60.0737905906,NA,"American English","VSH_Exp2","2016_Mar_23_1803",NA
"Recordings/pati.wav","no","p","t","a","yes","i","pati","Training","bilabial","TrainingItems",0,54,54,2,NA,NA,NA,NA,NA,NA,NA,NA,NA,NA,1,FALSE,18,60.0737905906,NA,"American English","VSH_Exp2","2016_Mar_23_1803",NA
"Recordings/vizu.wav","yes","v","z","i","no","u","vizu","Training","bilabial","TrainingItems",0,55,55,1,NA,NA,NA,NA,NA,NA,NA,NA,NA,NA,1,FALSE,18,60.0737905906,NA,"American English","VSH_Exp2","2016_Mar_23_1803",NA
"Recordings/tatu.wav","no","t","t","a","yes","u","tatu","Training","alveolar","TrainingItems",0,56,56,65,NA,NA,NA,NA,NA,NA,NA,NA,NA,NA,1,FALSE,18,60.0737905906,NA,"American English","VSH_Exp2","2016_Mar_23_1803",NA
"Recordings/susu.wav","no","s","s","u","no","u","susu","Training","alveolar","TrainingItems",0,57,57,8,NA,NA,NA,NA,NA,NA,NA,NA,NA,NA,1,FALSE,18,60.0737905906,NA,"American English","VSH_Exp2","2016_Mar_23_1803",NA
"Recordings/zuva.wav","yes","z","v","u","no","a","zuva","Training","alveolar","TrainingItems",0,58,58,79,NA,NA,NA,NA,NA,NA,NA,NA,NA,NA,1,FALSE,18,60.0737905906,NA,"American English","VSH_Exp2","2016_Mar_23_1803",NA
"Recordings/vivu.wav","yes","v","v","i","no","u","vivu","Training","bilabial","TrainingItems",0,59,59,15,NA,NA,NA,NA,NA,NA,NA,NA,NA,NA,1,FALSE,18,60.0737905906,NA,"American English","VSH_Exp2","2016_Mar_23_1803",NA
"Recordings/duda.wav","yes","d","d","u","yes","a","duda","Training","alveolar","TrainingItems",0,60,60,46,NA,NA,NA,NA,NA,NA,NA,NA,NA,NA,1,FALSE,18,60.0737905906,NA,"American English","VSH_Exp2","2016_Mar_23_1803",NA
"Recordings/pipi.wav","no","p","p","i","yes","i","pipi","Training","bilabial","TrainingItems",0,61,61,9,NA,NA,NA,NA,NA,NA,NA,NA,NA,NA,1,FALSE,18,60.0737905906,NA,"American English","VSH_Exp2","2016_Mar_23_1803",NA
"Recordings/badi.wav","yes","b","d","a","yes","i","badi","Training","bilabial","TrainingItems",0,62,62,40,NA,NA,NA,NA,NA,NA,NA,NA,NA,NA,1,FALSE,18,60.0737905906,NA,"American English","VSH_Exp2","2016_Mar_23_1803",NA
"Recordings/dudi.wav","yes","d","d","u","yes","i","dudi","Training","alveolar","TrainingItems",0,63,63,37,NA,NA,NA,NA,NA,NA,NA,NA,NA,NA,1,FALSE,18,60.0737905906,NA,"American English","VSH_Exp2","2016_Mar_23_1803",NA
"Recordings/zuzu.wav","yes","z","z","u","no","u","zuzu","Training","alveolar","TrainingItems",0,64,64,47,NA,NA,NA,NA,NA,NA,NA,NA,NA,NA,1,FALSE,18,60.0737905906,NA,"American English","VSH_Exp2","2016_Mar_23_1803",NA
"Recordings/vaza.wav","yes","v","z","a","no","a","vaza","Training","bilabial","TrainingItems",0,65,65,20,NA,NA,NA,NA,NA,NA,NA,NA,NA,NA,1,FALSE,18,60.0737905906,NA,"American English","VSH_Exp2","2016_Mar_23_1803",NA
"Recordings/tutu.wav","no","t","t","u","yes","u","tutu","Training","alveolar","TrainingItems",0,66,66,75,NA,NA,NA,NA,NA,NA,NA,NA,NA,NA,1,FALSE,18,60.0737905906,NA,"American English","VSH_Exp2","2016_Mar_23_1803",NA
"Recordings/budu.wav","yes","b","d","u","yes","u","budu","Training","bilabial","TrainingItems",0,67,67,29,NA,NA,NA,NA,NA,NA,NA,NA,NA,NA,1,FALSE,18,60.0737905906,NA,"American English","VSH_Exp2","2016_Mar_23_1803",NA
"Recordings/fafi.wav","no","f","f","a","no","i","fafi","Training","bilabial","TrainingItems",0,68,68,72,NA,NA,NA,NA,NA,NA,NA,NA,NA,NA,1,FALSE,18,60.0737905906,NA,"American English","VSH_Exp2","2016_Mar_23_1803",NA
"Recordings/vuvu.wav","yes","v","v","u","no","u","vuvu","Training","bilabial","TrainingItems",0,69,69,44,NA,NA,NA,NA,NA,NA,NA,NA,NA,NA,1,FALSE,18,60.0737905906,NA,"American English","VSH_Exp2","2016_Mar_23_1803",NA
"Recordings/zizu.wav","yes","z","z","i","no","u","zizu","Training","alveolar","TrainingItems",0,70,70,74,NA,NA,NA,NA,NA,NA,NA,NA,NA,NA,1,FALSE,18,60.0737905906,NA,"American English","VSH_Exp2","2016_Mar_23_1803",NA
"Recordings/bubi.wav","yes","b","b","u","yes","i","bubi","Training","bilabial","TrainingItems",0,71,71,53,NA,NA,NA,NA,NA,NA,NA,NA,NA,NA,1,FALSE,18,60.0737905906,NA,"American English","VSH_Exp2","2016_Mar_23_1803",NA
"Recordings/zava.wav","yes","z","v","a","no","a","zava","Training","alveolar","TrainingItems",0,72,72,3,NA,NA,NA,NA,NA,NA,NA,NA,NA,NA,1,FALSE,18,60.0737905906,NA,"American English","VSH_Exp2","2016_Mar_23_1803",NA
"Recordings/fufa.wav","no","f","f","u","no","a","fufa","Training","bilabial","TrainingItems",0,73,73,0,NA,NA,NA,NA,NA,NA,NA,NA,NA,NA,1,FALSE,18,60.0737905906,NA,"American English","VSH_Exp2","2016_Mar_23_1803",NA
"Recordings/sasu.wav","no","s","s","a","no","u","sasu","Training","alveolar","TrainingItems",0,74,74,36,NA,NA,NA,NA,NA,NA,NA,NA,NA,NA,1,FALSE,18,60.0737905906,NA,"American English","VSH_Exp2","2016_Mar_23_1803",NA
"Recordings/pipa.wav","no","p","p","i","yes","a","pipa","Training","bilabial","TrainingItems",0,75,75,11,NA,NA,NA,NA,NA,NA,NA,NA,NA,NA,1,FALSE,18,60.0737905906,NA,"American English","VSH_Exp2","2016_Mar_23_1803",NA
"Recordings/fafu.wav","no","f","f","a","no","u","fafu","Training","bilabial","TrainingItems",0,76,76,86,NA,NA,NA,NA,NA,NA,NA,NA,NA,NA,1,FALSE,18,60.0737905906,NA,"American English","VSH_Exp2","2016_Mar_23_1803",NA
"Recordings/vuvi.wav","yes","v","v","u","no","i","vuvi","Training","bilabial","TrainingItems",0,77,77,56,NA,NA,NA,NA,NA,NA,NA,NA,NA,NA,1,FALSE,18,60.0737905906,NA,"American English","VSH_Exp2","2016_Mar_23_1803",NA
"Recordings/zuvu.wav","yes","z","v","u","no","u","zuvu","Training","alveolar","TrainingItems",0,78,78,84,NA,NA,NA,NA,NA,NA,NA,NA,NA,NA,1,FALSE,18,60.0737905906,NA,"American English","VSH_Exp2","2016_Mar_23_1803",NA
"Recordings/tipi.wav","no","t","p","i","yes","i","tipi","Training","alveolar","TrainingItems",0,79,79,31,NA,NA,NA,NA,NA,NA,NA,NA,NA,NA,1,FALSE,18,60.0737905906,NA,"American English","VSH_Exp2","2016_Mar_23_1803",NA
"Recordings/vuzi.wav","yes","v","z","u","no","i","vuzi","Training","bilabial","TrainingItems",0,80,80,7,NA,NA,NA,NA,NA,NA,NA,NA,NA,NA,1,FALSE,18,60.0737905906,NA,"American English","VSH_Exp2","2016_Mar_23_1803",NA
"Recordings/bida.wav","yes","b","d","i","yes","a","bida","Training","bilabial","TrainingItems",0,81,81,17,NA,NA,NA,NA,NA,NA,NA,NA,NA,NA,1,FALSE,18,60.0737905906,NA,"American English","VSH_Exp2","2016_Mar_23_1803",NA
"Recordings/pipu.wav","no","p","p","i","yes","u","pipu","Training","bilabial","TrainingItems",0,82,82,26,NA,NA,NA,NA,NA,NA,NA,NA,NA,NA,1,FALSE,18,60.0737905906,NA,"American English","VSH_Exp2","2016_Mar_23_1803",NA
"Recordings/tapa.wav","no","t","p","a","yes","a","tapa","Training","alveolar","TrainingItems",0,83,83,77,NA,NA,NA,NA,NA,NA,NA,NA,NA,NA,1,FALSE,18,60.0737905906,NA,"American English","VSH_Exp2","2016_Mar_23_1803",NA
"Recordings/vuva.wav","yes","v","v","u","no","a","vuva","Training","bilabial","TrainingItems",0,84,84,24,NA,NA,NA,NA,NA,NA,NA,NA,NA,NA,1,FALSE,18,60.0737905906,NA,"American English","VSH_Exp2","2016_Mar_23_1803",NA
"Recordings/vivi.wav","yes","v","v","i","no","i","vivi","Training","bilabial","TrainingItems",0,85,85,30,NA,NA,NA,NA,NA,NA,NA,NA,NA,NA,1,FALSE,18,60.0737905906,NA,"American English","VSH_Exp2","2016_Mar_23_1803",NA
"Recordings/bibi.wav","yes","b","b","i","yes","i","bibi","Training","bilabial","TrainingItems",0,86,86,34,NA,NA,NA,NA,NA,NA,NA,NA,NA,NA,1,FALSE,18,60.0737905906,NA,"American English","VSH_Exp2","2016_Mar_23_1803",NA
"Recordings/fifi.wav","no","f","f","i","no","i","fifi","Training","bilabial","TrainingItems",0,87,87,35,NA,NA,NA,NA,NA,NA,NA,NA,NA,NA,1,FALSE,18,60.0737905906,NA,"American English","VSH_Exp2","2016_Mar_23_1803",NA
"Recordings/vavu.wav","yes","v","v","a","no","u","vavu","Training","bilabial","TrainingItems",0,88,88,19,NA,NA,NA,NA,NA,NA,NA,NA,NA,NA,1,FALSE,18,60.0737905906,NA,"American English","VSH_Exp2","2016_Mar_23_1803",NA
"Recordings/buda.wav","yes","b","d","u","yes","a","buda","Training","bilabial","TrainingItems",0,89,89,78,NA,NA,NA,NA,NA,NA,NA,NA,NA,NA,1,FALSE,18,60.0737905906,NA,"American English","VSH_Exp2","2016_Mar_23_1803",NA
"Recordings/dudu.wav","yes","d","d","u","yes","u","dudu","Training","alveolar","TrainingItems",0,90,90,39,NA,NA,NA,NA,NA,NA,NA,NA,NA,NA,1,FALSE,18,60.0737905906,NA,"American English","VSH_Exp2","2016_Mar_23_1803",NA
"Recordings/pata.wav","no","p","t","a","yes","a","pata","Training","bilabial","TrainingItems",0,91,91,82,NA,NA,NA,NA,NA,NA,NA,NA,NA,NA,1,FALSE,18,60.0737905906,NA,"American English","VSH_Exp2","2016_Mar_23_1803",NA
"Recordings/patu.wav","no","p","t","a","yes","u","patu","Training","bilabial","TrainingItems",0,92,92,57,NA,NA,NA,NA,NA,NA,NA,NA,NA,NA,1,FALSE,18,60.0737905906,NA,"American English","VSH_Exp2","2016_Mar_23_1803",NA
"Recordings/sasa.wav","no","s","s","a","no","a","sasa","Training","alveolar","TrainingItems",0,93,93,22,NA,NA,NA,NA,NA,NA,NA,NA,NA,NA,1,FALSE,18,60.0737905906,NA,"American English","VSH_Exp2","2016_Mar_23_1803",NA
"Recordings/zuza.wav","yes","z","z","u","no","a","zuza","Training","alveolar","TrainingItems",0,94,94,64,NA,NA,NA,NA,NA,NA,NA,NA,NA,NA,1,FALSE,18,60.0737905906,NA,"American English","VSH_Exp2","2016_Mar_23_1803",NA
"Recordings/tuti.wav","no","t","t","u","yes","i","tuti","Training","alveolar","TrainingItems",0,95,95,76,NA,NA,NA,NA,NA,NA,NA,NA,NA,NA,1,FALSE,18,60.0737905906,NA,"American English","VSH_Exp2","2016_Mar_23_1803",NA
"Recordings/ziva.wav","yes","z","v","i","no","a","ziva","Training","alveolar","TrainingItems",0,96,96,4,NA,NA,NA,NA,NA,NA,NA,NA,NA,NA,1,FALSE,18,60.0737905906,NA,"American English","VSH_Exp2","2016_Mar_23_1803",NA
"Recordings/zizi.wav","yes","z","z","i","no","i","zizi","Training","alveolar","TrainingItems",0,97,97,23,NA,NA,NA,NA,NA,NA,NA,NA,NA,NA,1,FALSE,18,60.0737905906,NA,"American English","VSH_Exp2","2016_Mar_23_1803",NA
"Recordings/dada.wav","yes","d","d","a","yes","a","dada","Training","alveolar","TrainingItems",0,98,98,62,NA,NA,NA,NA,NA,NA,NA,NA,NA,NA,1,FALSE,18,60.0737905906,NA,"American English","VSH_Exp2","2016_Mar_23_1803",NA
"Recordings/tita.wav","no","t","t","i","yes","a","tita","Training","alveolar","TrainingItems",0,99,99,33,NA,NA,NA,NA,NA,NA,NA,NA,NA,NA,1,FALSE,18,60.0737905906,NA,"American English","VSH_Exp2","2016_Mar_23_1803",NA
"Recordings/fufi.wav","no","f","f","u","no","i","fufi","Training","bilabial","TrainingItems",1,0,100,54,NA,NA,NA,NA,NA,NA,NA,NA,NA,NA,1,FALSE,18,60.0737905906,NA,"American English","VSH_Exp2","2016_Mar_23_1803",NA
"Recordings/fufu.wav","no","f","f","u","no","u","fufu","Training","bilabial","TrainingItems",1,1,101,90,NA,NA,NA,NA,NA,NA,NA,NA,NA,NA,1,FALSE,18,60.0737905906,NA,"American English","VSH_Exp2","2016_Mar_23_1803",NA
"Recordings/zuza.wav","yes","z","z","u","no","a","zuza","Training","alveolar","TrainingItems",1,2,102,64,NA,NA,NA,NA,NA,NA,NA,NA,NA,NA,1,FALSE,18,60.0737905906,NA,"American English","VSH_Exp2","2016_Mar_23_1803",NA
"Recordings/tapa.wav","no","t","p","a","yes","a","tapa","Training","alveolar","TrainingItems",1,3,103,77,NA,NA,NA,NA,NA,NA,NA,NA,NA,NA,1,FALSE,18,60.0737905906,NA,"American English","VSH_Exp2","2016_Mar_23_1803",NA
"Recordings/pupa.wav","no","p","p","u","yes","a","pupa","Training","bilabial","TrainingItems",1,4,104,92,NA,NA,NA,NA,NA,NA,NA,NA,NA,NA,1,FALSE,18,60.0737905906,NA,"American English","VSH_Exp2","2016_Mar_23_1803",NA
"Recordings/zizi.wav","yes","z","z","i","no","i","zizi","Training","alveolar","TrainingItems",1,5,105,23,NA,NA,NA,NA,NA,NA,NA,NA,NA,NA,1,FALSE,18,60.0737905906,NA,"American English","VSH_Exp2","2016_Mar_23_1803",NA
"Recordings/papa.wav","no","p","p","a","yes","a","papa","Training","bilabial","TrainingItems",1,6,106,68,NA,NA,NA,NA,NA,NA,NA,NA,NA,NA,1,FALSE,18,60.0737905906,NA,"American English","VSH_Exp2","2016_Mar_23_1803",NA
"Recordings/vivu.wav","yes","v","v","i","no","u","vivu","Training","bilabial","TrainingItems",1,7,107,15,NA,NA,NA,NA,NA,NA,NA,NA,NA,NA,1,FALSE,18,60.0737905906,NA,"American English","VSH_Exp2","2016_Mar_23_1803",NA
"Recordings/fafi.wav","no","f","f","a","no","i","fafi","Training","bilabial","TrainingItems",1,8,108,72,NA,NA,NA,NA,NA,NA,NA,NA,NA,NA,1,FALSE,18,60.0737905906,NA,"American English","VSH_Exp2","2016_Mar_23_1803",NA
"Recordings/tupu.wav","no","t","p","u","yes","u","tupu","Training","alveolar","TrainingItems",1,9,109,12,NA,NA,NA,NA,NA,NA,NA,NA,NA,NA,1,FALSE,18,60.0737905906,NA,"American English","VSH_Exp2","2016_Mar_23_1803",NA
"Recordings/ziva.wav","yes","z","v","i","no","a","ziva","Training","alveolar","TrainingItems",1,10,110,4,NA,NA,NA,NA,NA,NA,NA,NA,NA,NA,1,FALSE,18,60.0737905906,NA,"American English","VSH_Exp2","2016_Mar_23_1803",NA
"Recordings/pitu.wav","no","p","t","i","yes","u","pitu","Training","bilabial","TrainingItems",1,11,111,95,NA,NA,NA,NA,NA,NA,NA,NA,NA,NA,1,FALSE,18,60.0737905906,NA,"American English","VSH_Exp2","2016_Mar_23_1803",NA
"Recordings/vuza.wav","yes","v","z","u","no","a","vuza","Training","bilabial","TrainingItems",1,12,112,41,NA,NA,NA,NA,NA,NA,NA,NA,NA,NA,1,FALSE,18,60.0737905906,NA,"American English","VSH_Exp2","2016_Mar_23_1803",NA
"Recordings/dudi.wav","yes","d","d","u","yes","i","dudi","Training","alveolar","TrainingItems",1,13,113,37,NA,NA,NA,NA,NA,NA,NA,NA,NA,NA,1,FALSE,18,60.0737905906,NA,"American English","VSH_Exp2","2016_Mar_23_1803",NA
"Recordings/vuzi.wav","yes","v","z","u","no","i","vuzi","Training","bilabial","TrainingItems",1,14,114,7,NA,NA,NA,NA,NA,NA,NA,NA,NA,NA,1,FALSE,18,60.0737905906,NA,"American English","VSH_Exp2","2016_Mar_23_1803",NA
"Recordings/zuva.wav","yes","z","v","u","no","a","zuva","Training","alveolar","TrainingItems",1,15,115,79,NA,NA,NA,NA,NA,NA,NA,NA,NA,NA,1,FALSE,18,60.0737905906,NA,"American English","VSH_Exp2","2016_Mar_23_1803",NA
"Recordings/tipi.wav","no","t","p","i","yes","i","tipi","Training","alveolar","TrainingItems",1,16,116,31,NA,NA,NA,NA,NA,NA,NA,NA,NA,NA,1,FALSE,18,60.0737905906,NA,"American English","VSH_Exp2","2016_Mar_23_1803",NA
"Recordings/sasi.wav","no","s","s","a","no","i","sasi","Training","alveolar","TrainingItems",1,17,117,99,NA,NA,NA,NA,NA,NA,NA,NA,NA,NA,1,FALSE,18,60.0737905906,NA,"American English","VSH_Exp2","2016_Mar_23_1803",NA
"Recordings/vavi.wav","yes","v","v","a","no","i","vavi","Training","bilabial","TrainingItems",1,18,118,49,NA,NA,NA,NA,NA,NA,NA,NA,NA,NA,1,FALSE,18,60.0737905906,NA,"American English","VSH_Exp2","2016_Mar_23_1803",NA
"Recordings/buda.wav","yes","b","d","u","yes","a","buda","Training","bilabial","TrainingItems",1,19,119,78,NA,NA,NA,NA,NA,NA,NA,NA,NA,NA,1,FALSE,18,60.0737905906,NA,"American English","VSH_Exp2","2016_Mar_23_1803",NA
"Recordings/pipi.wav","no","p","p","i","yes","i","pipi","Training","bilabial","TrainingItems",1,20,120,9,NA,NA,NA,NA,NA,NA,NA,NA,NA,NA,1,FALSE,18,60.0737905906,NA,"American English","VSH_Exp2","2016_Mar_23_1803",NA
"Recordings/viza.wav","yes","v","z","i","no","a","viza","Training","bilabial","TrainingItems",1,21,121,55,NA,NA,NA,NA,NA,NA,NA,NA,NA,NA,1,FALSE,18,60.0737905906,NA,"American English","VSH_Exp2","2016_Mar_23_1803",NA
"Recordings/zava.wav","yes","z","v","a","no","a","zava","Training","alveolar","TrainingItems",1,22,122,3,NA,NA,NA,NA,NA,NA,NA,NA,NA,NA,1,FALSE,18,60.0737905906,NA,"American English","VSH_Exp2","2016_Mar_23_1803",NA
"Recordings/vavu.wav","yes","v","v","a","no","u","vavu","Training","bilabial","TrainingItems",1,23,123,19,NA,NA,NA,NA,NA,NA,NA,NA,NA,NA,1,FALSE,18,60.0737905906,NA,"American English","VSH_Exp2","2016_Mar_23_1803",NA
"Recordings/bibu.wav","yes","b","b","i","yes","u","bibu","Training","bilabial","TrainingItems",1,24,124,50,NA,NA,NA,NA,NA,NA,NA,NA,NA,NA,1,FALSE,18,60.0737905906,NA,"American English","VSH_Exp2","2016_Mar_23_1803",NA
"Recordings/dadu.wav","yes","d","d","a","yes","u","dadu","Training","alveolar","TrainingItems",1,25,125,16,NA,NA,NA,NA,NA,NA,NA,NA,NA,NA,1,FALSE,18,60.0737905906,NA,"American English","VSH_Exp2","2016_Mar_23_1803",NA
"Recordings/tita.wav","no","t","t","i","yes","a","tita","Training","alveolar","TrainingItems",1,26,126,33,NA,NA,NA,NA,NA,NA,NA,NA,NA,NA,1,FALSE,18,60.0737905906,NA,"American English","VSH_Exp2","2016_Mar_23_1803",NA
"Recordings/zavi.wav","yes","z","v","a","no","i","zavi","Training","alveolar","TrainingItems",1,27,127,38,NA,NA,NA,NA,NA,NA,NA,NA,NA,NA,1,FALSE,18,60.0737905906,NA,"American English","VSH_Exp2","2016_Mar_23_1803",NA
"Recordings/puta.wav","no","p","t","u","yes","a","puta","Training","bilabial","TrainingItems",1,28,128,80,NA,NA,NA,NA,NA,NA,NA,NA,NA,NA,1,FALSE,18,60.0737905906,NA,"American English","VSH_Exp2","2016_Mar_23_1803",NA
"Recordings/dubu.wav","yes","d","b","u","yes","u","dubu","Training","alveolar","TrainingItems",1,29,129,93,NA,NA,NA,NA,NA,NA,NA,NA,NA,NA,1,FALSE,18,60.0737905906,NA,"American English","VSH_Exp2","2016_Mar_23_1803",NA
"Recordings/diba.wav","yes","d","b","i","yes","a","diba","Training","alveolar","TrainingItems",1,30,130,28,NA,NA,NA,NA,NA,NA,NA,NA,NA,NA,1,FALSE,18,60.0737905906,NA,"American English","VSH_Exp2","2016_Mar_23_1803",NA
"Recordings/fifa.wav","no","f","f","i","no","a","fifa","Training","bilabial","TrainingItems",1,31,131,70,NA,NA,NA,NA,NA,NA,NA,NA,NA,NA,1,FALSE,18,60.0737905906,NA,"American English","VSH_Exp2","2016_Mar_23_1803",NA
"Recordings/viva.wav","yes","v","v","i","no","a","viva","Training","bilabial","TrainingItems",1,32,132,97,NA,NA,NA,NA,NA,NA,NA,NA,NA,NA,1,FALSE,18,60.0737905906,NA,"American English","VSH_Exp2","2016_Mar_23_1803",NA
"Recordings/babu.wav","yes","b","b","a","yes","u","babu","Training","bilabial","TrainingItems",1,33,133,94,NA,NA,NA,NA,NA,NA,NA,NA,NA,NA,1,FALSE,18,60.0737905906,NA,"American English","VSH_Exp2","2016_Mar_23_1803",NA
"Recordings/tatu.wav","no","t","t","a","yes","u","tatu","Training","alveolar","TrainingItems",1,34,134,65,NA,NA,NA,NA,NA,NA,NA,NA,NA,NA,1,FALSE,18,60.0737905906,NA,"American English","VSH_Exp2","2016_Mar_23_1803",NA
"Recordings/badi.wav","yes","b","d","a","yes","i","badi","Training","bilabial","TrainingItems",1,35,135,40,NA,NA,NA,NA,NA,NA,NA,NA,NA,NA,1,FALSE,18,60.0737905906,NA,"American English","VSH_Exp2","2016_Mar_23_1803",NA
"Recordings/tuti.wav","no","t","t","u","yes","i","tuti","Training","alveolar","TrainingItems",1,36,136,76,NA,NA,NA,NA,NA,NA,NA,NA,NA,NA,1,FALSE,18,60.0737905906,NA,"American English","VSH_Exp2","2016_Mar_23_1803",NA
"Recordings/duba.wav","yes","d","b","u","yes","a","duba","Training","alveolar","TrainingItems",1,37,137,42,NA,NA,NA,NA,NA,NA,NA,NA,NA,NA,1,FALSE,18,60.0737905906,NA,"American English","VSH_Exp2","2016_Mar_23_1803",NA
"Recordings/zavu.wav","yes","z","v","a","no","u","zavu","Training","alveolar","TrainingItems",1,38,138,10,NA,NA,NA,NA,NA,NA,NA,NA,NA,NA,1,FALSE,18,60.0737905906,NA,"American English","VSH_Exp2","2016_Mar_23_1803",NA
"Recordings/vuva.wav","yes","v","v","u","no","a","vuva","Training","bilabial","TrainingItems",1,39,139,24,NA,NA,NA,NA,NA,NA,NA,NA,NA,NA,1,FALSE,18,60.0737905906,NA,"American English","VSH_Exp2","2016_Mar_23_1803",NA
"Recordings/vaza.wav","yes","v","z","a","no","a","vaza","Training","bilabial","TrainingItems",1,40,140,20,NA,NA,NA,NA,NA,NA,NA,NA,NA,NA,1,FALSE,18,60.0737905906,NA,"American English","VSH_Exp2","2016_Mar_23_1803",NA
"Recordings/puti.wav","no","p","t","u","yes","i","puti","Training","bilabial","TrainingItems",1,41,141,27,NA,NA,NA,NA,NA,NA,NA,NA,NA,NA,1,FALSE,18,60.0737905906,NA,"American English","VSH_Exp2","2016_Mar_23_1803",NA
"Recordings/pupi.wav","no","p","p","u","yes","i","pupi","Training","bilabial","TrainingItems",1,42,142,52,NA,NA,NA,NA,NA,NA,NA,NA,NA,NA,1,FALSE,18,60.0737905906,NA,"American English","VSH_Exp2","2016_Mar_23_1803",NA
"Recordings/papu.wav","no","p","p","a","yes","u","papu","Training","bilabial","TrainingItems",1,43,143,66,NA,NA,NA,NA,NA,NA,NA,NA,NA,NA,1,FALSE,18,60.0737905906,NA,"American English","VSH_Exp2","2016_Mar_23_1803",NA
"Recordings/susu.wav","no","s","s","u","no","u","susu","Training","alveolar","TrainingItems",1,44,144,8,NA,NA,NA,NA,NA,NA,NA,NA,NA,NA,1,FALSE,18,60.0737905906,NA,"American English","VSH_Exp2","2016_Mar_23_1803",NA
"Recordings/vuvu.wav","yes","v","v","u","no","u","vuvu","Training","bilabial","TrainingItems",1,45,145,44,NA,NA,NA,NA,NA,NA,NA,NA,NA,NA,1,FALSE,18,60.0737905906,NA,"American English","VSH_Exp2","2016_Mar_23_1803",NA
"Recordings/fifi.wav","no","f","f","i","no","i","fifi","Training","bilabial","TrainingItems",1,46,146,35,NA,NA,NA,NA,NA,NA,NA,NA,NA,NA,1,FALSE,18,60.0737905906,NA,"American English","VSH_Exp2","2016_Mar_23_1803",NA
"Recordings/budu.wav","yes","b","d","u","yes","u","budu","Training","bilabial","TrainingItems",1,47,147,29,NA,NA,NA,NA,NA,NA,NA,NA,NA,NA,1,FALSE,18,60.0737905906,NA,"American English","VSH_Exp2","2016_Mar_23_1803",NA
"Recordings/sasa.wav","no","s","s","a","no","a","sasa","Training","alveolar","TrainingItems",1,48,148,22,NA,NA,NA,NA,NA,NA,NA,NA,NA,NA,1,FALSE,18,60.0737905906,NA,"American English","VSH_Exp2","2016_Mar_23_1803",NA
"Recordings/badu.wav","yes","b","d","a","yes","u","badu","Training","bilabial","TrainingItems",1,49,149,98,NA,NA,NA,NA,NA,NA,NA,NA,NA,NA,1,FALSE,18,60.0737905906,NA,"American English","VSH_Exp2","2016_Mar_23_1803",NA
"Recordings/vuvi.wav","yes","v","v","u","no","i","vuvi","Training","bilabial","TrainingItems",1,50,150,56,NA,NA,NA,NA,NA,NA,NA,NA,NA,NA,1,FALSE,18,60.0737905906,NA,"American English","VSH_Exp2","2016_Mar_23_1803",NA
"Recordings/patu.wav","no","p","t","a","yes","u","patu","Training","bilabial","TrainingItems",1,51,151,57,NA,NA,NA,NA,NA,NA,NA,NA,NA,NA,1,FALSE,18,60.0737905906,NA,"American English","VSH_Exp2","2016_Mar_23_1803",NA
"Recordings/tupi.wav","no","t","p","u","yes","i","tupi","Training","alveolar","TrainingItems",1,52,152,69,NA,NA,NA,NA,NA,NA,NA,NA,NA,NA,1,FALSE,18,60.0737905906,NA,"American English","VSH_Exp2","2016_Mar_23_1803",NA
"Recordings/zaza.wav","yes","z","z","a","no","a","zaza","Training","alveolar","TrainingItems",1,53,153,45,NA,NA,NA,NA,NA,NA,NA,NA,NA,NA,1,FALSE,18,60.0737905906,NA,"American English","VSH_Exp2","2016_Mar_23_1803",NA
"Recordings/zuvu.wav","yes","z","v","u","no","u","zuvu","Training","alveolar","TrainingItems",1,54,154,84,NA,NA,NA,NA,NA,NA,NA,NA,NA,NA,1,FALSE,18,60.0737905906,NA,"American English","VSH_Exp2","2016_Mar_23_1803",NA
"Recordings/dibu.wav","yes","d","b","i","yes","u","dibu","Training","alveolar","TrainingItems",1,55,155,43,NA,NA,NA,NA,NA,NA,NA,NA,NA,NA,1,FALSE,18,60.0737905906,NA,"American English","VSH_Exp2","2016_Mar_23_1803",NA
"Recordings/vazu.wav","yes","v","z","a","no","u","vazu","Training","bilabial","TrainingItems",1,56,156,60,NA,NA,NA,NA,NA,NA,NA,NA,NA,NA,1,FALSE,18,60.0737905906,NA,"American English","VSH_Exp2","2016_Mar_23_1803",NA
"Recordings/bidu.wav","yes","b","d","i","yes","u","bidu","Training","bilabial","TrainingItems",1,57,157,61,NA,NA,NA,NA,NA,NA,NA,NA,NA,NA,1,FALSE,18,60.0737905906,NA,"American English","VSH_Exp2","2016_Mar_23_1803",NA
"Recordings/tapi.wav","no","t","p","a","yes","i","tapi","Training","alveolar","TrainingItems",1,58,158,71,NA,NA,NA,NA,NA,NA,NA,NA,NA,NA,1,FALSE,18,60.0737905906,NA,"American English","VSH_Exp2","2016_Mar_23_1803",NA
"Recordings/zazi.wav","yes","z","z","a","no","i","zazi","Training","alveolar","TrainingItems",1,59,159,32,NA,NA,NA,NA,NA,NA,NA,NA,NA,NA,1,FALSE,18,60.0737905906,NA,"American English","VSH_Exp2","2016_Mar_23_1803",NA
"Recordings/didu.wav","yes","d","d","i","yes","u","didu","Training","alveolar","TrainingItems",1,60,160,51,NA,NA,NA,NA,NA,NA,NA,NA,NA,NA,1,FALSE,18,60.0737905906,NA,"American English","VSH_Exp2","2016_Mar_23_1803",NA
"Recordings/dudu.wav","yes","d","d","u","yes","u","dudu","Training","alveolar","TrainingItems",1,61,161,39,NA,NA,NA,NA,NA,NA,NA,NA,NA,NA,1,FALSE,18,60.0737905906,NA,"American English","VSH_Exp2","2016_Mar_23_1803",NA
"Recordings/baba.wav","yes","b","b","a","yes","a","baba","Training","bilabial","TrainingItems",1,62,162,73,NA,NA,NA,NA,NA,NA,NA,NA,NA,NA,1,FALSE,18,60.0737905906,NA,"American English","VSH_Exp2","2016_Mar_23_1803",NA
"Recordings/pita.wav","no","p","t","i","yes","a","pita","Training","bilabial","TrainingItems",1,63,163,88,NA,NA,NA,NA,NA,NA,NA,NA,NA,NA,1,FALSE,18,60.0737905906,NA,"American English","VSH_Exp2","2016_Mar_23_1803",NA
"Recordings/dabi.wav","yes","d","b","a","yes","i","dabi","Training","alveolar","TrainingItems",1,64,164,91,NA,NA,NA,NA,NA,NA,NA,NA,NA,NA,1,FALSE,18,60.0737905906,NA,"American English","VSH_Exp2","2016_Mar_23_1803",NA
"Recordings/vuzu.wav","yes","v","z","u","no","u","vuzu","Training","bilabial","TrainingItems",1,65,165,81,NA,NA,NA,NA,NA,NA,NA,NA,NA,NA,1,FALSE,18,60.0737905906,NA,"American English","VSH_Exp2","2016_Mar_23_1803",NA
"Recordings/fafu.wav","no","f","f","a","no","u","fafu","Training","bilabial","TrainingItems",1,66,166,86,NA,NA,NA,NA,NA,NA,NA,NA,NA,NA,1,FALSE,18,60.0737905906,NA,"American English","VSH_Exp2","2016_Mar_23_1803",NA
"Recordings/tati.wav","no","t","t","a","yes","i","tati","Training","alveolar","TrainingItems",1,67,167,48,NA,NA,NA,NA,NA,NA,NA,NA,NA,NA,1,FALSE,18,60.0737905906,NA,"American English","VSH_Exp2","2016_Mar_23_1803",NA
"Recordings/putu.wav","no","p","t","u","yes","u","putu","Training","bilabial","TrainingItems",1,68,168,85,NA,NA,NA,NA,NA,NA,NA,NA,NA,NA,1,FALSE,18,60.0737905906,NA,"American English","VSH_Exp2","2016_Mar_23_1803",NA
"Recordings/pipa.wav","no","p","p","i","yes","a","pipa","Training","bilabial","TrainingItems",1,69,169,11,NA,NA,NA,NA,NA,NA,NA,NA,NA,NA,1,FALSE,18,60.0737905906,NA,"American English","VSH_Exp2","2016_Mar_23_1803",NA
"Recordings/dabu.wav","yes","d","b","a","yes","u","dabu","Training","alveolar","TrainingItems",1,70,170,96,NA,NA,NA,NA,NA,NA,NA,NA,NA,NA,1,FALSE,18,60.0737905906,NA,"American English","VSH_Exp2","2016_Mar_23_1803",NA
"Recordings/duda.wav","yes","d","d","u","yes","a","duda","Training","alveolar","TrainingItems",1,71,171,46,NA,NA,NA,NA,NA,NA,NA,NA,NA,NA,1,FALSE,18,60.0737905906,NA,"American English","VSH_Exp2","2016_Mar_23_1803",NA
"Recordings/pupu.wav","no","p","p","u","yes","u","pupu","Training","bilabial","TrainingItems",1,72,172,58,NA,NA,NA,NA,NA,NA,NA,NA,NA,NA,1,FALSE,18,60.0737905906,NA,"American English","VSH_Exp2","2016_Mar_23_1803",NA
"Recordings/fufa.wav","no","f","f","u","no","a","fufa","Training","bilabial","TrainingItems",1,73,173,0,NA,NA,NA,NA,NA,NA,NA,NA,NA,NA,1,FALSE,18,60.0737905906,NA,"American English","VSH_Exp2","2016_Mar_23_1803",NA
"Recordings/tutu.wav","no","t","t","u","yes","u","tutu","Training","alveolar","TrainingItems",1,74,174,75,NA,NA,NA,NA,NA,NA,NA,NA,NA,NA,1,FALSE,18,60.0737905906,NA,"American English","VSH_Exp2","2016_Mar_23_1803",NA
"Recordings/bibi.wav","yes","b","b","i","yes","i","bibi","Training","bilabial","TrainingItems",1,75,175,34,NA,NA,NA,NA,NA,NA,NA,NA,NA,NA,1,FALSE,18,60.0737905906,NA,"American English","VSH_Exp2","2016_Mar_23_1803",NA
"Recordings/pati.wav","no","p","t","a","yes","i","pati","Training","bilabial","TrainingItems",1,76,176,2,NA,NA,NA,NA,NA,NA,NA,NA,NA,NA,1,FALSE,18,60.0737905906,NA,"American English","VSH_Exp2","2016_Mar_23_1803",NA
"Recordings/bada.wav","yes","b","d","a","yes","a","bada","Training","bilabial","TrainingItems",1,77,177,14,NA,NA,NA,NA,NA,NA,NA,NA,NA,NA,1,FALSE,18,60.0737905906,NA,"American English","VSH_Exp2","2016_Mar_23_1803",NA
"Recordings/budi.wav","yes","b","d","u","yes","i","budi","Training","bilabial","TrainingItems",1,78,178,63,NA,NA,NA,NA,NA,NA,NA,NA,NA,NA,1,FALSE,18,60.0737905906,NA,"American English","VSH_Exp2","2016_Mar_23_1803",NA
"Recordings/vivi.wav","yes","v","v","i","no","i","vivi","Training","bilabial","TrainingItems",1,79,179,30,NA,NA,NA,NA,NA,NA,NA,NA,NA,NA,1,FALSE,18,60.0737905906,NA,"American English","VSH_Exp2","2016_Mar_23_1803",NA
"Recordings/zuzu.wav","yes","z","z","u","no","u","zuzu","Training","alveolar","TrainingItems",1,80,180,47,NA,NA,NA,NA,NA,NA,NA,NA,NA,NA,1,FALSE,18,60.0737905906,NA,"American English","VSH_Exp2","2016_Mar_23_1803",NA
"Recordings/susi.wav","no","s","s","u","no","i","susi","Training","alveolar","TrainingItems",1,81,181,13,NA,NA,NA,NA,NA,NA,NA,NA,NA,NA,1,FALSE,18,60.0737905906,NA,"American English","VSH_Exp2","2016_Mar_23_1803",NA
"Recordings/dubi.wav","yes","d","b","u","yes","i","dubi","Training","alveolar","TrainingItems",1,82,182,18,NA,NA,NA,NA,NA,NA,NA,NA,NA,NA,1,FALSE,18,60.0737905906,NA,"American English","VSH_Exp2","2016_Mar_23_1803",NA
"Recordings/zivi.wav","yes","z","v","i","no","i","zivi","Training","alveolar","TrainingItems",1,83,183,87,NA,NA,NA,NA,NA,NA,NA,NA,NA,NA,1,FALSE,18,60.0737905906,NA,"American English","VSH_Exp2","2016_Mar_23_1803",NA
"Recordings/sasu.wav","no","s","s","a","no","u","sasu","Training","alveolar","TrainingItems",1,84,184,36,NA,NA,NA,NA,NA,NA,NA,NA,NA,NA,1,FALSE,18,60.0737905906,NA,"American English","VSH_Exp2","2016_Mar_23_1803",NA
"Recordings/dadi.wav","yes","d","d","a","yes","i","dadi","Training","alveolar","TrainingItems",1,85,185,59,NA,NA,NA,NA,NA,NA,NA,NA,NA,NA,1,FALSE,18,60.0737905906,NA,"American English","VSH_Exp2","2016_Mar_23_1803",NA
"Recordings/pata.wav","no","p","t","a","yes","a","pata","Training","bilabial","TrainingItems",1,86,186,82,NA,NA,NA,NA,NA,NA,NA,NA,NA,NA,1,FALSE,18,60.0737905906,NA,"American English","VSH_Exp2","2016_Mar_23_1803",NA
"Recordings/zizu.wav","yes","z","z","i","no","u","zizu","Training","alveolar","TrainingItems",1,87,187,74,NA,NA,NA,NA,NA,NA,NA,NA,NA,NA,1,FALSE,18,60.0737905906,NA,"American English","VSH_Exp2","2016_Mar_23_1803",NA
"Recordings/bubi.wav","yes","b","b","u","yes","i","bubi","Training","bilabial","TrainingItems",1,88,188,53,NA,NA,NA,NA,NA,NA,NA,NA,NA,NA,1,FALSE,18,60.0737905906,NA,"American English","VSH_Exp2","2016_Mar_23_1803",NA
"Recordings/susa.wav","no","s","s","u","no","a","susa","Training","alveolar","TrainingItems",1,89,189,6,NA,NA,NA,NA,NA,NA,NA,NA,NA,NA,1,FALSE,18,60.0737905906,NA,"American English","VSH_Exp2","2016_Mar_23_1803",NA
"Recordings/vazi.wav","yes","v","z","a","no","i","vazi","Training","bilabial","TrainingItems",1,90,190,89,NA,NA,NA,NA,NA,NA,NA,NA,NA,NA,1,FALSE,18,60.0737905906,NA,"American English","VSH_Exp2","2016_Mar_23_1803",NA
"Recordings/bida.wav","yes","b","d","i","yes","a","bida","Training","bilabial","TrainingItems",1,91,191,17,NA,NA,NA,NA,NA,NA,NA,NA,NA,NA,1,FALSE,18,60.0737905906,NA,"American English","VSH_Exp2","2016_Mar_23_1803",NA
"Recordings/bidi.wav","yes","b","d","i","yes","i","bidi","Training","bilabial","TrainingItems",1,92,192,5,NA,NA,NA,NA,NA,NA,NA,NA,NA,NA,1,FALSE,18,60.0737905906,NA,"American English","VSH_Exp2","2016_Mar_23_1803",NA
"Recordings/titu.wav","no","t","t","i","yes","u","titu","Training","alveolar","TrainingItems",1,93,193,83,NA,NA,NA,NA,NA,NA,NA,NA,NA,NA,1,FALSE,18,60.0737905906,NA,"American English","VSH_Exp2","2016_Mar_23_1803",NA
"Recordings/sisu.wav","no","s","s","i","no","u","sisu","Training","alveolar","TrainingItems",1,94,194,25,NA,NA,NA,NA,NA,NA,NA,NA,NA,NA,1,FALSE,18,60.0737905906,NA,"American English","VSH_Exp2","2016_Mar_23_1803",NA
"Recordings/vizu.wav","yes","v","z","i","no","u","vizu","Training","bilabial","TrainingItems",1,95,195,1,NA,NA,NA,NA,NA,NA,NA,NA,NA,NA,1,FALSE,18,60.0737905906,NA,"American English","VSH_Exp2","2016_Mar_23_1803",NA
"Recordings/dada.wav","yes","d","d","a","yes","a","dada","Training","alveolar","TrainingItems",1,96,196,62,NA,NA,NA,NA,NA,NA,NA,NA,NA,NA,1,FALSE,18,60.0737905906,NA,"American English","VSH_Exp2","2016_Mar_23_1803",NA
"Recordings/titi.wav","no","t","t","i","yes","i","titi","Training","alveolar","TrainingItems",1,97,197,21,NA,NA,NA,NA,NA,NA,NA,NA,NA,NA,1,FALSE,18,60.0737905906,NA,"American English","VSH_Exp2","2016_Mar_23_1803",NA
"Recordings/papi.wav","no","p","p","a","yes","i","papi","Training","bilabial","TrainingItems",1,98,198,67,NA,NA,NA,NA,NA,NA,NA,NA,NA,NA,1,FALSE,18,60.0737905906,NA,"American English","VSH_Exp2","2016_Mar_23_1803",NA
"Recordings/pipu.wav","no","p","p","i","yes","u","pipu","Training","bilabial","TrainingItems",1,99,199,26,NA,NA,NA,NA,NA,NA,NA,NA,NA,NA,1,FALSE,18,60.0737905906,NA,"American English","VSH_Exp2","2016_Mar_23_1803",NA
NA,NA,NA,NA,NA,NA,NA,NA,NA,NA,NA,NA,NA,NA,NA,NA,NA,NA,NA,NA,NA,"space",1.36876392365,NA,NA,1,FALSE,18,60.0737905906,NA,"American English","VSH_Exp2","2016_Mar_23_1803",NA
"Recordings/fifu.wav","no","f","f","i","no","u","fifu","Test","bilabial","NewWordTestStimuli",NA,NA,NA,NA,0,0,0,22,NA,NA,NA,NA,"Yes","1.737",1,FALSE,18,60.0737905906,NA,"American English","VSH_Exp2","2016_Mar_23_1803",NA
"Recordings/supi.wav","no","s","p","u","no","i","supi","Controls","alveolar","VoicingControls",NA,NA,NA,NA,0,1,1,46,NA,NA,NA,NA,"None","None",1,FALSE,18,60.0737905906,NA,"American English","VSH_Exp2","2016_Mar_23_1803",NA
"Recordings/vatu.wav","yes","v","t","a","no","u","vatu","Controls","bilabial","NoPatternControls",NA,NA,NA,NA,0,2,2,53,NA,NA,NA,NA,"No","4.757",1,FALSE,18,60.0737905906,NA,"American English","VSH_Exp2","2016_Mar_23_1803",NA
"Recordings/sufa.wav","no","s","f","u","no","a","sufa","Test","alveolar","NewConsTestStimuli",NA,NA,NA,NA,0,3,3,13,NA,NA,NA,NA,"Yes","2.122",1,FALSE,18,60.0737905906,NA,"American English","VSH_Exp2","2016_Mar_23_1803",NA
"Recordings/fusa.wav","no","f","s","u","no","a","fusa","Test","bilabial","NewConsTestStimuli",NA,NA,NA,NA,0,4,4,10,NA,NA,NA,NA,"Yes","0.971",1,FALSE,18,60.0737905906,NA,"American English","VSH_Exp2","2016_Mar_23_1803",NA
"Recordings/sifi.wav","no","s","f","i","no","i","sifi","Test","alveolar","NewConsTestStimuli",NA,NA,NA,NA,0,5,5,14,NA,NA,NA,NA,"No","31.387",1,FALSE,18,60.0737905906,NA,"American English","VSH_Exp2","2016_Mar_23_1803",NA
"Recordings/vavi.wav","yes","v","v","a","no","i","vavi","Test","bilabial","OldTestStimuli",NA,NA,NA,NA,0,6,6,6,NA,NA,NA,NA,"Yes","3.489",1,FALSE,18,60.0737905906,NA,"American English","VSH_Exp2","2016_Mar_23_1803",NA
"Recordings/bipa.wav","yes","b","p","i","yes","a","bipa","Controls","bilabial","StopControls",NA,NA,NA,NA,0,7,7,35,NA,NA,NA,NA,"No","7.46",1,FALSE,18,60.0737905906,NA,"American English","VSH_Exp2","2016_Mar_23_1803",NA
"Recordings/pubi.wav","no","p","b","u","yes","i","pubi","Controls","bilabial","StopControls",NA,NA,NA,NA,0,8,8,39,NA,NA,NA,NA,"Yes","6.458",1,FALSE,18,60.0737905906,NA,"American English","VSH_Exp2","2016_Mar_23_1803",NA
"Recordings/suva.wav","no","s","v","u","no","a","suva","Controls","alveolar","StopControls",NA,NA,NA,NA,0,9,9,36,NA,NA,NA,NA,"Yes","2.406",1,FALSE,18,60.0737905906,NA,"American English","VSH_Exp2","2016_Mar_23_1803",NA
"Recordings/vufa.wav","yes","v","f","u","no","a","vufa","Controls","bilabial","StopControls",NA,NA,NA,NA,0,10,10,31,NA,NA,NA,NA,"Yes","1.921",1,FALSE,18,60.0737905906,NA,"American English","VSH_Exp2","2016_Mar_23_1803",NA
"Recordings/vizi.wav","yes","v","z","i","no","i","vizi","Test","bilabial","NewWordTestStimuli",NA,NA,NA,NA,0,11,11,21,NA,NA,NA,NA,"Yes","1.236",1,FALSE,18,60.0737905906,NA,"American English","VSH_Exp2","2016_Mar_23_1803",NA
"Recordings/didi.wav","yes","d","d","i","yes","i","didi","Test","alveolar","NewWordTestStimuli",NA,NA,NA,NA,0,12,12,20,NA,NA,NA,NA,"No","2.505",1,FALSE,18,60.0737905906,NA,"American English","VSH_Exp2","2016_Mar_23_1803",NA
"Recordings/busu.wav","yes","b","s","u","yes","u","busu","Controls","bilabial","NoPatternControls",NA,NA,NA,NA,0,13,13,55,NA,NA,NA,NA,"No","1.788",1,FALSE,18,60.0737905906,NA,"American English","VSH_Exp2","2016_Mar_23_1803",NA
"Recordings/suvu.wav","no","s","v","u","no","u","suvu","Controls","alveolar","StopControls",NA,NA,NA,NA,0,14,14,38,NA,NA,NA,NA,"No","2.271",1,FALSE,18,60.0737905906,NA,"American English","VSH_Exp2","2016_Mar_23_1803",NA
"Recordings/sudi.wav","no","s","d","u","no","i","sudi","Controls","alveolar","NoPatternControls",NA,NA,NA,NA,0,15,15,56,NA,NA,NA,NA,"No","1.437",1,FALSE,18,60.0737905906,NA,"American English","VSH_Exp2","2016_Mar_23_1803",NA
"Recordings/bibu.wav","yes","b","b","i","yes","u","bibu","Test","bilabial","OldTestStimuli",NA,NA,NA,NA,0,16,16,8,NA,NA,NA,NA,"No","3.807",1,FALSE,18,60.0737905906,NA,"American English","VSH_Exp2","2016_Mar_23_1803",NA
"Recordings/vuza.wav","yes","v","z","u","no","a","vuza","Test","bilabial","OldTestStimuli",NA,NA,NA,NA,0,17,17,9,NA,NA,NA,NA,"Yes","2.555",1,FALSE,18,60.0737905906,NA,"American English","VSH_Exp2","2016_Mar_23_1803",NA
"Recordings/vava.wav","yes","v","v","a","no","a","vava","Test","bilabial","NewWordTestStimuli",NA,NA,NA,NA,0,18,18,23,NA,NA,NA,NA,"No","4.842",1,FALSE,18,60.0737905906,NA,"American English","VSH_Exp2","2016_Mar_23_1803",NA
"Recordings/diba.wav","yes","d","b","i","yes","a","diba","Test","alveolar","OldTestStimuli",NA,NA,NA,NA,0,19,19,0,NA,NA,NA,NA,"Yes","2.656",1,FALSE,18,60.0737905906,NA,"American English","VSH_Exp2","2016_Mar_23_1803",NA
"Recordings/suta.wav","no","s","t","u","no","a","suta","Controls","alveolar","VoicingControls",NA,NA,NA,NA,0,20,20,48,NA,NA,NA,NA,"Yes","1.572",1,FALSE,18,60.0737905906,NA,"American English","VSH_Exp2","2016_Mar_23_1803",NA
"Recordings/zivu.wav","yes","z","v","i","no","u","zivu","Test","alveolar","NewWordTestStimuli",NA,NA,NA,NA,0,21,21,24,NA,NA,NA,NA,"Yes","1.536",1,FALSE,18,60.0737905906,NA,"American English","VSH_Exp2","2016_Mar_23_1803",NA
"Recordings/biba.wav","yes","b","b","i","yes","a","biba","Test","bilabial","NewWordTestStimuli",NA,NA,NA,NA,0,22,22,25,NA,NA,NA,NA,"Yes","0.853",1,FALSE,18,60.0737905906,NA,"American English","VSH_Exp2","2016_Mar_23_1803",NA
"Recordings/pisi.wav","no","p","s","i","yes","i","pisi","Controls","bilabial","VoicingControls",NA,NA,NA,NA,0,23,23,42,NA,NA,NA,NA,"No","1.488",1,FALSE,18,60.0737905906,NA,"American English","VSH_Exp2","2016_Mar_23_1803",NA
"Recordings/fibi.wav","no","f","b","i","no","i","fibi","Controls","bilabial","NoPatternControls",NA,NA,NA,NA,0,24,24,50,NA,NA,NA,NA,"No","1.119",1,FALSE,18,60.0737905906,NA,"American English","VSH_Exp2","2016_Mar_23_1803",NA
"Recordings/vadi.wav","yes","v","d","a","no","i","vadi","Controls","bilabial","VoicingControls",NA,NA,NA,NA,0,25,25,47,NA,NA,NA,NA,"No","0.92",1,FALSE,18,60.0737905906,NA,"American English","VSH_Exp2","2016_Mar_23_1803",NA
"Recordings/biva.wav","yes","b","v","i","yes","a","biva","Controls","bilabial","VoicingControls",NA,NA,NA,NA,0,26,26,45,NA,NA,NA,NA,"No","1.454",1,FALSE,18,60.0737905906,NA,"American English","VSH_Exp2","2016_Mar_23_1803",NA
"Recordings/favi.wav","no","f","v","a","no","i","favi","Controls","bilabial","StopControls",NA,NA,NA,NA,0,27,27,30,NA,NA,NA,NA,"No","1.822",1,FALSE,18,60.0737905906,NA,"American English","VSH_Exp2","2016_Mar_23_1803",NA
"Recordings/pufi.wav","no","p","f","u","yes","i","pufi","Controls","bilabial","VoicingControls",NA,NA,NA,NA,0,28,28,49,NA,NA,NA,NA,"No","1.22",1,FALSE,18,60.0737905906,NA,"American English","VSH_Exp2","2016_Mar_23_1803",NA
"Recordings/vidi.wav","yes","v","d","i","no","i","vidi","Controls","bilabial","VoicingControls",NA,NA,NA,NA,0,29,29,43,NA,NA,NA,NA,"No","1.421",1,FALSE,18,60.0737905906,NA,"American English","VSH_Exp2","2016_Mar_23_1803",NA
"Recordings/vasi.wav","yes","v","s","a","no","i","vasi","Controls","bilabial","StopControls",NA,NA,NA,NA,0,30,30,37,NA,NA,NA,NA,"Yes","4.941",1,FALSE,18,60.0737905906,NA,"American English","VSH_Exp2","2016_Mar_23_1803",NA
"Recordings/zita.wav","yes","z","t","i","no","a","zita","Controls","alveolar","NoPatternControls",NA,NA,NA,NA,0,31,31,54,NA,NA,NA,NA,"Yes","1.22",1,FALSE,18,60.0737905906,NA,"American English","VSH_Exp2","2016_Mar_23_1803",NA
"Recordings/zadu.wav","yes","z","d","a","no","u","zadu","Controls","alveolar","VoicingControls",NA,NA,NA,NA,0,32,32,44,NA,NA,NA,NA,"No","2.805",1,FALSE,18,60.0737905906,NA,"American English","VSH_Exp2","2016_Mar_23_1803",NA
"Recordings/buda.wav","yes","b","d","u","yes","a","buda","Test","bilabial","OldTestStimuli",NA,NA,NA,NA,0,33,33,1,NA,NA,NA,NA,"Yes","3.106",1,FALSE,18,60.0737905906,NA,"American English","VSH_Exp2","2016_Mar_23_1803",NA
"Recordings/badi.wav","yes","b","d","a","yes","i","badi","Test","bilabial","OldTestStimuli",NA,NA,NA,NA,0,34,34,2,NA,NA,NA,NA,"Yes","1.52",1,FALSE,18,60.0737905906,NA,"American English","VSH_Exp2","2016_Mar_23_1803",NA
"Recordings/zasu.wav","yes","z","s","a","no","u","zasu","Controls","alveolar","StopControls",NA,NA,NA,NA,0,35,35,34,NA,NA,NA,NA,"No","3.073",1,FALSE,18,60.0737905906,NA,"American English","VSH_Exp2","2016_Mar_23_1803",NA
"Recordings/vata.wav","yes","v","t","a","no","a","vata","Controls","bilabial","NoPatternControls",NA,NA,NA,NA,0,36,36,57,NA,NA,NA,NA,"No","1.469",1,FALSE,18,60.0737905906,NA,"American English","VSH_Exp2","2016_Mar_23_1803",NA
"Recordings/fasi.wav","no","f","s","a","no","i","fasi","Test","bilabial","NewConsTestStimuli",NA,NA,NA,NA,0,37,37,19,NA,NA,NA,NA,"Yes","2.621",1,FALSE,18,60.0737905906,NA,"American English","VSH_Exp2","2016_Mar_23_1803",NA
"Recordings/pidi.wav","no","p","d","i","yes","i","pidi","Controls","bilabial","StopControls",NA,NA,NA,NA,0,38,38,32,NA,NA,NA,NA,"No","2.605",1,FALSE,18,60.0737905906,NA,"American English","VSH_Exp2","2016_Mar_23_1803",NA
"Recordings/ziva.wav","yes","z","v","i","no","a","ziva","Test","alveolar","OldTestStimuli",NA,NA,NA,NA,0,39,39,5,NA,NA,NA,NA,"Yes","2.772",1,FALSE,18,60.0737905906,NA,"American English","VSH_Exp2","2016_Mar_23_1803",NA
"Recordings/vuti.wav","yes","v","t","u","no","i","vuti","Controls","bilabial","NoPatternControls",NA,NA,NA,NA,0,40,40,51,NA,NA,NA,NA,"No","2.406",1,FALSE,18,60.0737905906,NA,"American English","VSH_Exp2","2016_Mar_23_1803",NA
"Recordings/fisa.wav","no","f","s","i","no","a","fisa","Test","bilabial","NewConsTestStimuli",NA,NA,NA,NA,0,41,41,15,NA,NA,NA,NA,"Yes","2.439",1,FALSE,18,60.0737905906,NA,"American English","VSH_Exp2","2016_Mar_23_1803",NA
"Recordings/zuzi.wav","yes","z","z","u","no","i","zuzi","Test","alveolar","NewWordTestStimuli",NA,NA,NA,NA,0,42,42,29,NA,NA,NA,NA,"Yes","1.219",1,FALSE,18,60.0737905906,NA,"American English","VSH_Exp2","2016_Mar_23_1803",NA
"Recordings/tipu.wav","no","t","p","i","yes","u","tipu","Test","alveolar","NewWordTestStimuli",NA,NA,NA,NA,0,43,43,27,NA,NA,NA,NA,"Yes","1.288",1,FALSE,18,60.0737905906,NA,"American English","VSH_Exp2","2016_Mar_23_1803",NA
"Recordings/piti.wav","no","p","t","i","yes","i","piti","Test","bilabial","NewWordTestStimuli",NA,NA,NA,NA,0,44,44,26,NA,NA,NA,NA,"Yes","1.12",1,FALSE,18,60.0737905906,NA,"American English","VSH_Exp2","2016_Mar_23_1803",NA
"Recordings/sifu.wav","no","s","f","i","no","u","sifu","Test","alveolar","NewConsTestStimuli",NA,NA,NA,NA,0,45,45,16,NA,NA,NA,NA,"No","2.272",1,FALSE,18,60.0737905906,NA,"American English","VSH_Exp2","2016_Mar_23_1803",NA
"Recordings/sabi.wav","no","s","b","a","no","i","sabi","Controls","alveolar","NoPatternControls",NA,NA,NA,NA,0,46,46,58,NA,NA,NA,NA,"No","1.604",1,FALSE,18,60.0737905906,NA,"American English","VSH_Exp2","2016_Mar_23_1803",NA
"Recordings/ziza.wav","yes","z","z","i","no","a","ziza","Test","alveolar","NewWordTestStimuli",NA,NA,NA,NA,0,47,47,28,NA,NA,NA,NA,"Yes","2.171",1,FALSE,18,60.0737905906,NA,"American English","VSH_Exp2","2016_Mar_23_1803",NA
"Recordings/sufi.wav","no","s","f","u","no","i","sufi","Test","alveolar","NewConsTestStimuli",NA,NA,NA,NA,0,48,48,18,NA,NA,NA,NA,"Yes","1.286",1,FALSE,18,60.0737905906,NA,"American English","VSH_Exp2","2016_Mar_23_1803",NA
"Recordings/fufu.wav","no","f","f","u","no","u","fufu","Test","bilabial","OldTestStimuli",NA,NA,NA,NA,0,49,49,4,NA,NA,NA,NA,"Yes","0.953",1,FALSE,18,60.0737905906,NA,"American English","VSH_Exp2","2016_Mar_23_1803",NA
"Recordings/sufu.wav","no","s","f","u","no","u","sufu","Test","alveolar","NewConsTestStimuli",NA,NA,NA,NA,0,50,50,17,NA,NA,NA,NA,"Yes","2.306",1,FALSE,18,60.0737905906,NA,"American English","VSH_Exp2","2016_Mar_23_1803",NA
"Recordings/sifa.wav","no","s","f","i","no","a","sifa","Test","alveolar","NewConsTestStimuli",NA,NA,NA,NA,0,51,51,11,NA,NA,NA,NA,"Yes","1.354",1,FALSE,18,60.0737905906,NA,"American English","VSH_Exp2","2016_Mar_23_1803",NA
"Recordings/putu.wav","no","p","t","u","yes","u","putu","Test","bilabial","OldTestStimuli",NA,NA,NA,NA,0,52,52,3,NA,NA,NA,NA,"Yes","1.054",1,FALSE,18,60.0737905906,NA,"American English","VSH_Exp2","2016_Mar_23_1803",NA
"Recordings/vuba.wav","yes","v","b","u","no","a","vuba","Controls","bilabial","VoicingControls",NA,NA,NA,NA,0,53,53,41,NA,NA,NA,NA,"No","4.139",1,FALSE,18,60.0737905906,NA,"American English","VSH_Exp2","2016_Mar_23_1803",NA
"Recordings/visi.wav","yes","v","s","i","no","i","visi","Controls","bilabial","StopControls",NA,NA,NA,NA,0,54,54,33,NA,NA,NA,NA,"No","3.405",1,FALSE,18,60.0737905906,NA,"American English","VSH_Exp2","2016_Mar_23_1803",NA
"Recordings/pata.wav","no","p","t","a","yes","a","pata","Test","bilabial","OldTestStimuli",NA,NA,NA,NA,0,55,55,7,NA,NA,NA,NA,"No","0.952",1,FALSE,18,60.0737905906,NA,"American English","VSH_Exp2","2016_Mar_23_1803",NA
"Recordings/puzi.wav","no","p","z","u","yes","i","puzi","Controls","bilabial","NoPatternControls",NA,NA,NA,NA,0,56,56,52,NA,NA,NA,NA,"No","2.237",1,FALSE,18,60.0737905906,NA,"American English","VSH_Exp2","2016_Mar_23_1803",NA
"Recordings/fusi.wav","no","f","s","u","no","i","fusi","Test","bilabial","NewConsTestStimuli",NA,NA,NA,NA,0,57,57,12,NA,NA,NA,NA,"Yes","3.507",1,FALSE,18,60.0737905906,NA,"American English","VSH_Exp2","2016_Mar_23_1803",NA
"Recordings/pazi.wav","no","p","z","a","yes","i","pazi","Controls","bilabial","NoPatternControls",NA,NA,NA,NA,0,58,58,59,NA,NA,NA,NA,"No","2.204",1,FALSE,18,60.0737905906,NA,"American English","VSH_Exp2","2016_Mar_23_1803",NA
"Recordings/fata.wav","no","f","t","a","no","a","fata","Controls","bilabial","VoicingControls",NA,NA,NA,NA,0,59,59,40,NA,NA,NA,NA,"Yes","2.156",1,FALSE,18,60.0737905906,NA,"American English","VSH_Exp2","2016_Mar_23_1803",NA
