"SOUND","VOICING","SEGMENT","SEGMENT3","SEGMENT2","STOP","SEGMENT4","STIMULUS","GENERAL_TYPE","PLACE","TYPE","trials.thisRepN","trials.thisTrialN","trials.thisN","trials.thisIndex","trials_2.thisRepN","trials_2.thisTrialN","trials_2.thisN","trials_2.thisIndex","SpaceBar.keys","SpaceBar.rt","key_resp_2.keys","key_resp_2.rt","rating.response","rating.rt","participant","Gender","Age","frameRate","OtherLanguages","NativeLanguage","expName","date","X34"
NA,NA,NA,NA,NA,NA,NA,NA,NA,NA,NA,NA,NA,NA,NA,NA,NA,NA,NA,"space",20.45550704,NA,NA,NA,NA,20,FALSE,20,59.9097276976,"Chinese","American English","VSH_Exp2","2016_Mar_02_1818",NA
"Recordings/sisu.wav","no","s","s","i","no","u","sisu","Training","alveolar","TrainingItems",0,0,0,7,NA,NA,NA,NA,NA,NA,NA,NA,NA,NA,20,FALSE,20,59.9097276976,"Chinese","American English","VSH_Exp2","2016_Mar_02_1818",NA
"Recordings/bada.wav","yes","b","d","a","yes","a","bada","Training","bilabial","TrainingItems",0,1,1,13,NA,NA,NA,NA,NA,NA,NA,NA,NA,NA,20,FALSE,20,59.9097276976,"Chinese","American English","VSH_Exp2","2016_Mar_02_1818",NA
"Recordings/fisi.wav","no","f","s","i","no","i","fisi","Training","bilabial","TrainingItems",0,2,2,24,NA,NA,NA,NA,NA,NA,NA,NA,NA,NA,20,FALSE,20,59.9097276976,"Chinese","American English","VSH_Exp2","2016_Mar_02_1818",NA
"Recordings/sufa.wav","no","s","f","u","no","a","sufa","Training","alveolar","TrainingItems",0,3,3,27,NA,NA,NA,NA,NA,NA,NA,NA,NA,NA,20,FALSE,20,59.9097276976,"Chinese","American English","VSH_Exp2","2016_Mar_02_1818",NA
"Recordings/duda.wav","yes","d","d","u","yes","a","duda","Training","alveolar","TrainingItems",0,4,4,2,NA,NA,NA,NA,NA,NA,NA,NA,NA,NA,20,FALSE,20,59.9097276976,"Chinese","American English","VSH_Exp2","2016_Mar_02_1818",NA
"Recordings/tutu.wav","no","t","t","u","yes","u","tutu","Training","alveolar","TrainingItems",0,5,5,76,NA,NA,NA,NA,NA,NA,NA,NA,NA,NA,20,FALSE,20,59.9097276976,"Chinese","American English","VSH_Exp2","2016_Mar_02_1818",NA
"Recordings/baba.wav","yes","b","b","a","yes","a","baba","Training","bilabial","TrainingItems",0,6,6,90,NA,NA,NA,NA,NA,NA,NA,NA,NA,NA,20,FALSE,20,59.9097276976,"Chinese","American English","VSH_Exp2","2016_Mar_02_1818",NA
"Recordings/vava.wav","yes","v","v","a","no","a","vava","Training","bilabial","TrainingItems",0,7,7,58,NA,NA,NA,NA,NA,NA,NA,NA,NA,NA,20,FALSE,20,59.9097276976,"Chinese","American English","VSH_Exp2","2016_Mar_02_1818",NA
"Recordings/tatu.wav","no","t","t","a","yes","u","tatu","Training","alveolar","TrainingItems",0,8,8,55,NA,NA,NA,NA,NA,NA,NA,NA,NA,NA,20,FALSE,20,59.9097276976,"Chinese","American English","VSH_Exp2","2016_Mar_02_1818",NA
"Recordings/bidi.wav","yes","b","d","i","yes","i","bidi","Training","bilabial","TrainingItems",0,9,9,98,NA,NA,NA,NA,NA,NA,NA,NA,NA,NA,20,FALSE,20,59.9097276976,"Chinese","American English","VSH_Exp2","2016_Mar_02_1818",NA
"Recordings/titi.wav","no","t","t","i","yes","i","titi","Training","alveolar","TrainingItems",0,10,10,81,NA,NA,NA,NA,NA,NA,NA,NA,NA,NA,20,FALSE,20,59.9097276976,"Chinese","American English","VSH_Exp2","2016_Mar_02_1818",NA
"Recordings/budi.wav","yes","b","d","u","yes","i","budi","Training","bilabial","TrainingItems",0,11,11,32,NA,NA,NA,NA,NA,NA,NA,NA,NA,NA,20,FALSE,20,59.9097276976,"Chinese","American English","VSH_Exp2","2016_Mar_02_1818",NA
"Recordings/buda.wav","yes","b","d","u","yes","a","buda","Training","bilabial","TrainingItems",0,12,12,25,NA,NA,NA,NA,NA,NA,NA,NA,NA,NA,20,FALSE,20,59.9097276976,"Chinese","American English","VSH_Exp2","2016_Mar_02_1818",NA
"Recordings/zuva.wav","yes","z","v","u","no","a","zuva","Training","alveolar","TrainingItems",0,13,13,36,NA,NA,NA,NA,NA,NA,NA,NA,NA,NA,20,FALSE,20,59.9097276976,"Chinese","American English","VSH_Exp2","2016_Mar_02_1818",NA
"Recordings/daba.wav","yes","d","b","a","yes","a","daba","Training","alveolar","TrainingItems",0,14,14,75,NA,NA,NA,NA,NA,NA,NA,NA,NA,NA,20,FALSE,20,59.9097276976,"Chinese","American English","VSH_Exp2","2016_Mar_02_1818",NA
"Recordings/babu.wav","yes","b","b","a","yes","u","babu","Training","bilabial","TrainingItems",0,15,15,19,NA,NA,NA,NA,NA,NA,NA,NA,NA,NA,20,FALSE,20,59.9097276976,"Chinese","American English","VSH_Exp2","2016_Mar_02_1818",NA
"Recordings/tati.wav","no","t","t","a","yes","i","tati","Training","alveolar","TrainingItems",0,16,16,88,NA,NA,NA,NA,NA,NA,NA,NA,NA,NA,20,FALSE,20,59.9097276976,"Chinese","American English","VSH_Exp2","2016_Mar_02_1818",NA
"Recordings/bubu.wav","yes","b","b","u","yes","u","bubu","Training","bilabial","TrainingItems",0,17,17,49,NA,NA,NA,NA,NA,NA,NA,NA,NA,NA,20,FALSE,20,59.9097276976,"Chinese","American English","VSH_Exp2","2016_Mar_02_1818",NA
"Recordings/ziva.wav","yes","z","v","i","no","a","ziva","Training","alveolar","TrainingItems",0,18,18,61,NA,NA,NA,NA,NA,NA,NA,NA,NA,NA,20,FALSE,20,59.9097276976,"Chinese","American English","VSH_Exp2","2016_Mar_02_1818",NA
"Recordings/fufa.wav","no","f","f","u","no","a","fufa","Training","bilabial","TrainingItems",0,19,19,79,NA,NA,NA,NA,NA,NA,NA,NA,NA,NA,20,FALSE,20,59.9097276976,"Chinese","American English","VSH_Exp2","2016_Mar_02_1818",NA
"Recordings/viza.wav","yes","v","z","i","no","a","viza","Training","bilabial","TrainingItems",0,20,20,78,NA,NA,NA,NA,NA,NA,NA,NA,NA,NA,20,FALSE,20,59.9097276976,"Chinese","American English","VSH_Exp2","2016_Mar_02_1818",NA
"Recordings/safu.wav","no","s","f","a","no","u","safu","Training","alveolar","TrainingItems",0,21,21,65,NA,NA,NA,NA,NA,NA,NA,NA,NA,NA,20,FALSE,20,59.9097276976,"Chinese","American English","VSH_Exp2","2016_Mar_02_1818",NA
"Recordings/vivi.wav","yes","v","v","i","no","i","vivi","Training","bilabial","TrainingItems",0,22,22,42,NA,NA,NA,NA,NA,NA,NA,NA,NA,NA,20,FALSE,20,59.9097276976,"Chinese","American English","VSH_Exp2","2016_Mar_02_1818",NA
"Recordings/sisi.wav","no","s","s","i","no","i","sisi","Training","alveolar","TrainingItems",0,23,23,60,NA,NA,NA,NA,NA,NA,NA,NA,NA,NA,20,FALSE,20,59.9097276976,"Chinese","American English","VSH_Exp2","2016_Mar_02_1818",NA
"Recordings/zivi.wav","yes","z","v","i","no","i","zivi","Training","alveolar","TrainingItems",0,24,24,56,NA,NA,NA,NA,NA,NA,NA,NA,NA,NA,20,FALSE,20,59.9097276976,"Chinese","American English","VSH_Exp2","2016_Mar_02_1818",NA
"Recordings/dubu.wav","yes","d","b","u","yes","u","dubu","Training","alveolar","TrainingItems",0,25,25,64,NA,NA,NA,NA,NA,NA,NA,NA,NA,NA,20,FALSE,20,59.9097276976,"Chinese","American English","VSH_Exp2","2016_Mar_02_1818",NA
"Recordings/vuvu.wav","yes","v","v","u","no","u","vuvu","Training","bilabial","TrainingItems",0,26,26,89,NA,NA,NA,NA,NA,NA,NA,NA,NA,NA,20,FALSE,20,59.9097276976,"Chinese","American English","VSH_Exp2","2016_Mar_02_1818",NA
"Recordings/fusi.wav","no","f","s","u","no","i","fusi","Training","bilabial","TrainingItems",0,27,27,18,NA,NA,NA,NA,NA,NA,NA,NA,NA,NA,20,FALSE,20,59.9097276976,"Chinese","American English","VSH_Exp2","2016_Mar_02_1818",NA
"Recordings/zaza.wav","yes","z","z","a","no","a","zaza","Training","alveolar","TrainingItems",0,28,28,94,NA,NA,NA,NA,NA,NA,NA,NA,NA,NA,20,FALSE,20,59.9097276976,"Chinese","American English","VSH_Exp2","2016_Mar_02_1818",NA
"Recordings/bibu.wav","yes","b","b","i","yes","u","bibu","Training","bilabial","TrainingItems",0,29,29,22,NA,NA,NA,NA,NA,NA,NA,NA,NA,NA,20,FALSE,20,59.9097276976,"Chinese","American English","VSH_Exp2","2016_Mar_02_1818",NA
"Recordings/sufi.wav","no","s","f","u","no","i","sufi","Training","alveolar","TrainingItems",0,30,30,69,NA,NA,NA,NA,NA,NA,NA,NA,NA,NA,20,FALSE,20,59.9097276976,"Chinese","American English","VSH_Exp2","2016_Mar_02_1818",NA
"Recordings/papi.wav","no","p","p","a","yes","i","papi","Training","bilabial","TrainingItems",0,31,31,99,NA,NA,NA,NA,NA,NA,NA,NA,NA,NA,20,FALSE,20,59.9097276976,"Chinese","American English","VSH_Exp2","2016_Mar_02_1818",NA
"Recordings/safi.wav","no","s","f","a","no","i","safi","Training","alveolar","TrainingItems",0,32,32,10,NA,NA,NA,NA,NA,NA,NA,NA,NA,NA,20,FALSE,20,59.9097276976,"Chinese","American English","VSH_Exp2","2016_Mar_02_1818",NA
"Recordings/vizi.wav","yes","v","z","i","no","i","vizi","Training","bilabial","TrainingItems",0,33,33,9,NA,NA,NA,NA,NA,NA,NA,NA,NA,NA,20,FALSE,20,59.9097276976,"Chinese","American English","VSH_Exp2","2016_Mar_02_1818",NA
"Recordings/zuvi.wav","yes","z","v","u","no","i","zuvi","Training","alveolar","TrainingItems",0,34,34,47,NA,NA,NA,NA,NA,NA,NA,NA,NA,NA,20,FALSE,20,59.9097276976,"Chinese","American English","VSH_Exp2","2016_Mar_02_1818",NA
"Recordings/fufi.wav","no","f","f","u","no","i","fufi","Training","bilabial","TrainingItems",0,35,35,38,NA,NA,NA,NA,NA,NA,NA,NA,NA,NA,20,FALSE,20,59.9097276976,"Chinese","American English","VSH_Exp2","2016_Mar_02_1818",NA
"Recordings/sufu.wav","no","s","f","u","no","u","sufu","Training","alveolar","TrainingItems",0,36,36,80,NA,NA,NA,NA,NA,NA,NA,NA,NA,NA,20,FALSE,20,59.9097276976,"Chinese","American English","VSH_Exp2","2016_Mar_02_1818",NA
"Recordings/fifa.wav","no","f","f","i","no","a","fifa","Training","bilabial","TrainingItems",0,37,37,50,NA,NA,NA,NA,NA,NA,NA,NA,NA,NA,20,FALSE,20,59.9097276976,"Chinese","American English","VSH_Exp2","2016_Mar_02_1818",NA
"Recordings/pupi.wav","no","p","p","u","yes","i","pupi","Training","bilabial","TrainingItems",0,38,38,29,NA,NA,NA,NA,NA,NA,NA,NA,NA,NA,20,FALSE,20,59.9097276976,"Chinese","American English","VSH_Exp2","2016_Mar_02_1818",NA
"Recordings/biba.wav","yes","b","b","i","yes","a","biba","Training","bilabial","TrainingItems",0,39,39,40,NA,NA,NA,NA,NA,NA,NA,NA,NA,NA,20,FALSE,20,59.9097276976,"Chinese","American English","VSH_Exp2","2016_Mar_02_1818",NA
"Recordings/sifi.wav","no","s","f","i","no","i","sifi","Training","alveolar","TrainingItems",0,40,40,35,NA,NA,NA,NA,NA,NA,NA,NA,NA,NA,20,FALSE,20,59.9097276976,"Chinese","American English","VSH_Exp2","2016_Mar_02_1818",NA
"Recordings/sifa.wav","no","s","f","i","no","a","sifa","Training","alveolar","TrainingItems",0,41,41,8,NA,NA,NA,NA,NA,NA,NA,NA,NA,NA,20,FALSE,20,59.9097276976,"Chinese","American English","VSH_Exp2","2016_Mar_02_1818",NA
"Recordings/vuva.wav","yes","v","v","u","no","a","vuva","Training","bilabial","TrainingItems",0,42,42,72,NA,NA,NA,NA,NA,NA,NA,NA,NA,NA,20,FALSE,20,59.9097276976,"Chinese","American English","VSH_Exp2","2016_Mar_02_1818",NA
"Recordings/pupu.wav","no","p","p","u","yes","u","pupu","Training","bilabial","TrainingItems",0,43,43,1,NA,NA,NA,NA,NA,NA,NA,NA,NA,NA,20,FALSE,20,59.9097276976,"Chinese","American English","VSH_Exp2","2016_Mar_02_1818",NA
"Recordings/susi.wav","no","s","s","u","no","i","susi","Training","alveolar","TrainingItems",0,44,44,97,NA,NA,NA,NA,NA,NA,NA,NA,NA,NA,20,FALSE,20,59.9097276976,"Chinese","American English","VSH_Exp2","2016_Mar_02_1818",NA
"Recordings/zavu.wav","yes","z","v","a","no","u","zavu","Training","alveolar","TrainingItems",0,45,45,63,NA,NA,NA,NA,NA,NA,NA,NA,NA,NA,20,FALSE,20,59.9097276976,"Chinese","American English","VSH_Exp2","2016_Mar_02_1818",NA
"Recordings/sasa.wav","no","s","s","a","no","a","sasa","Training","alveolar","TrainingItems",0,46,46,15,NA,NA,NA,NA,NA,NA,NA,NA,NA,NA,20,FALSE,20,59.9097276976,"Chinese","American English","VSH_Exp2","2016_Mar_02_1818",NA
"Recordings/zuza.wav","yes","z","z","u","no","a","zuza","Training","alveolar","TrainingItems",0,47,47,93,NA,NA,NA,NA,NA,NA,NA,NA,NA,NA,20,FALSE,20,59.9097276976,"Chinese","American English","VSH_Exp2","2016_Mar_02_1818",NA
"Recordings/vuvi.wav","yes","v","v","u","no","i","vuvi","Training","bilabial","TrainingItems",0,48,48,57,NA,NA,NA,NA,NA,NA,NA,NA,NA,NA,20,FALSE,20,59.9097276976,"Chinese","American English","VSH_Exp2","2016_Mar_02_1818",NA
"Recordings/fisa.wav","no","f","s","i","no","a","fisa","Training","bilabial","TrainingItems",0,49,49,85,NA,NA,NA,NA,NA,NA,NA,NA,NA,NA,20,FALSE,20,59.9097276976,"Chinese","American English","VSH_Exp2","2016_Mar_02_1818",NA
"Recordings/ziza.wav","yes","z","z","i","no","a","ziza","Training","alveolar","TrainingItems",0,50,50,86,NA,NA,NA,NA,NA,NA,NA,NA,NA,NA,20,FALSE,20,59.9097276976,"Chinese","American English","VSH_Exp2","2016_Mar_02_1818",NA
"Recordings/duba.wav","yes","d","b","u","yes","a","duba","Training","alveolar","TrainingItems",0,51,51,39,NA,NA,NA,NA,NA,NA,NA,NA,NA,NA,20,FALSE,20,59.9097276976,"Chinese","American English","VSH_Exp2","2016_Mar_02_1818",NA
"Recordings/fafu.wav","no","f","f","a","no","u","fafu","Training","bilabial","TrainingItems",0,52,52,59,NA,NA,NA,NA,NA,NA,NA,NA,NA,NA,20,FALSE,20,59.9097276976,"Chinese","American English","VSH_Exp2","2016_Mar_02_1818",NA
"Recordings/zazu.wav","yes","z","z","a","no","u","zazu","Training","alveolar","TrainingItems",0,53,53,34,NA,NA,NA,NA,NA,NA,NA,NA,NA,NA,20,FALSE,20,59.9097276976,"Chinese","American English","VSH_Exp2","2016_Mar_02_1818",NA
"Recordings/didi.wav","yes","d","d","i","yes","i","didi","Training","alveolar","TrainingItems",0,54,54,68,NA,NA,NA,NA,NA,NA,NA,NA,NA,NA,20,FALSE,20,59.9097276976,"Chinese","American English","VSH_Exp2","2016_Mar_02_1818",NA
"Recordings/dadi.wav","yes","d","d","a","yes","i","dadi","Training","alveolar","TrainingItems",0,55,55,71,NA,NA,NA,NA,NA,NA,NA,NA,NA,NA,20,FALSE,20,59.9097276976,"Chinese","American English","VSH_Exp2","2016_Mar_02_1818",NA
"Recordings/badu.wav","yes","b","d","a","yes","u","badu","Training","bilabial","TrainingItems",0,56,56,48,NA,NA,NA,NA,NA,NA,NA,NA,NA,NA,20,FALSE,20,59.9097276976,"Chinese","American English","VSH_Exp2","2016_Mar_02_1818",NA
"Recordings/susa.wav","no","s","s","u","no","a","susa","Training","alveolar","TrainingItems",0,57,57,3,NA,NA,NA,NA,NA,NA,NA,NA,NA,NA,20,FALSE,20,59.9097276976,"Chinese","American English","VSH_Exp2","2016_Mar_02_1818",NA
"Recordings/vazi.wav","yes","v","z","a","no","i","vazi","Training","bilabial","TrainingItems",0,58,58,70,NA,NA,NA,NA,NA,NA,NA,NA,NA,NA,20,FALSE,20,59.9097276976,"Chinese","American English","VSH_Exp2","2016_Mar_02_1818",NA
"Recordings/zizu.wav","yes","z","z","i","no","u","zizu","Training","alveolar","TrainingItems",0,59,59,82,NA,NA,NA,NA,NA,NA,NA,NA,NA,NA,20,FALSE,20,59.9097276976,"Chinese","American English","VSH_Exp2","2016_Mar_02_1818",NA
"Recordings/vaza.wav","yes","v","z","a","no","a","vaza","Training","bilabial","TrainingItems",0,60,60,73,NA,NA,NA,NA,NA,NA,NA,NA,NA,NA,20,FALSE,20,59.9097276976,"Chinese","American English","VSH_Exp2","2016_Mar_02_1818",NA
"Recordings/didu.wav","yes","d","d","i","yes","u","didu","Training","alveolar","TrainingItems",0,61,61,20,NA,NA,NA,NA,NA,NA,NA,NA,NA,NA,20,FALSE,20,59.9097276976,"Chinese","American English","VSH_Exp2","2016_Mar_02_1818",NA
"Recordings/sisa.wav","no","s","s","i","no","a","sisa","Training","alveolar","TrainingItems",0,62,62,21,NA,NA,NA,NA,NA,NA,NA,NA,NA,NA,20,FALSE,20,59.9097276976,"Chinese","American English","VSH_Exp2","2016_Mar_02_1818",NA
"Recordings/dabi.wav","yes","d","b","a","yes","i","dabi","Training","alveolar","TrainingItems",0,63,63,45,NA,NA,NA,NA,NA,NA,NA,NA,NA,NA,20,FALSE,20,59.9097276976,"Chinese","American English","VSH_Exp2","2016_Mar_02_1818",NA
"Recordings/tuti.wav","no","t","t","u","yes","i","tuti","Training","alveolar","TrainingItems",0,64,64,12,NA,NA,NA,NA,NA,NA,NA,NA,NA,NA,20,FALSE,20,59.9097276976,"Chinese","American English","VSH_Exp2","2016_Mar_02_1818",NA
"Recordings/vuzu.wav","yes","v","z","u","no","u","vuzu","Training","bilabial","TrainingItems",0,65,65,30,NA,NA,NA,NA,NA,NA,NA,NA,NA,NA,20,FALSE,20,59.9097276976,"Chinese","American English","VSH_Exp2","2016_Mar_02_1818",NA
"Recordings/fasi.wav","no","f","s","a","no","i","fasi","Training","bilabial","TrainingItems",0,66,66,11,NA,NA,NA,NA,NA,NA,NA,NA,NA,NA,20,FALSE,20,59.9097276976,"Chinese","American English","VSH_Exp2","2016_Mar_02_1818",NA
"Recordings/vazu.wav","yes","v","z","a","no","u","vazu","Training","bilabial","TrainingItems",0,67,67,16,NA,NA,NA,NA,NA,NA,NA,NA,NA,NA,20,FALSE,20,59.9097276976,"Chinese","American English","VSH_Exp2","2016_Mar_02_1818",NA
"Recordings/dudu.wav","yes","d","d","u","yes","u","dudu","Training","alveolar","TrainingItems",0,68,68,77,NA,NA,NA,NA,NA,NA,NA,NA,NA,NA,20,FALSE,20,59.9097276976,"Chinese","American English","VSH_Exp2","2016_Mar_02_1818",NA
"Recordings/sasu.wav","no","s","s","a","no","u","sasu","Training","alveolar","TrainingItems",0,69,69,33,NA,NA,NA,NA,NA,NA,NA,NA,NA,NA,20,FALSE,20,59.9097276976,"Chinese","American English","VSH_Exp2","2016_Mar_02_1818",NA
"Recordings/papa.wav","no","p","p","a","yes","a","papa","Training","bilabial","TrainingItems",0,70,70,74,NA,NA,NA,NA,NA,NA,NA,NA,NA,NA,20,FALSE,20,59.9097276976,"Chinese","American English","VSH_Exp2","2016_Mar_02_1818",NA
"Recordings/zavi.wav","yes","z","v","a","no","i","zavi","Training","alveolar","TrainingItems",0,71,71,67,NA,NA,NA,NA,NA,NA,NA,NA,NA,NA,20,FALSE,20,59.9097276976,"Chinese","American English","VSH_Exp2","2016_Mar_02_1818",NA
"Recordings/badi.wav","yes","b","d","a","yes","i","badi","Training","bilabial","TrainingItems",0,72,72,41,NA,NA,NA,NA,NA,NA,NA,NA,NA,NA,20,FALSE,20,59.9097276976,"Chinese","American English","VSH_Exp2","2016_Mar_02_1818",NA
"Recordings/safa.wav","no","s","f","a","no","a","safa","Training","alveolar","TrainingItems",0,73,73,95,NA,NA,NA,NA,NA,NA,NA,NA,NA,NA,20,FALSE,20,59.9097276976,"Chinese","American English","VSH_Exp2","2016_Mar_02_1818",NA
"Recordings/fasu.wav","no","f","s","a","no","u","fasu","Training","bilabial","TrainingItems",0,74,74,91,NA,NA,NA,NA,NA,NA,NA,NA,NA,NA,20,FALSE,20,59.9097276976,"Chinese","American English","VSH_Exp2","2016_Mar_02_1818",NA
"Recordings/dabu.wav","yes","d","b","a","yes","u","dabu","Training","alveolar","TrainingItems",0,75,75,17,NA,NA,NA,NA,NA,NA,NA,NA,NA,NA,20,FALSE,20,59.9097276976,"Chinese","American English","VSH_Exp2","2016_Mar_02_1818",NA
"Recordings/fusa.wav","no","f","s","u","no","a","fusa","Training","bilabial","TrainingItems",0,76,76,53,NA,NA,NA,NA,NA,NA,NA,NA,NA,NA,20,FALSE,20,59.9097276976,"Chinese","American English","VSH_Exp2","2016_Mar_02_1818",NA
"Recordings/fifu.wav","no","f","f","i","no","u","fifu","Training","bilabial","TrainingItems",0,77,77,52,NA,NA,NA,NA,NA,NA,NA,NA,NA,NA,20,FALSE,20,59.9097276976,"Chinese","American English","VSH_Exp2","2016_Mar_02_1818",NA
"Recordings/zuzu.wav","yes","z","z","u","no","u","zuzu","Training","alveolar","TrainingItems",0,78,78,5,NA,NA,NA,NA,NA,NA,NA,NA,NA,NA,20,FALSE,20,59.9097276976,"Chinese","American English","VSH_Exp2","2016_Mar_02_1818",NA
"Recordings/bida.wav","yes","b","d","i","yes","a","bida","Training","bilabial","TrainingItems",0,79,79,6,NA,NA,NA,NA,NA,NA,NA,NA,NA,NA,20,FALSE,20,59.9097276976,"Chinese","American English","VSH_Exp2","2016_Mar_02_1818",NA
"Recordings/bubi.wav","yes","b","b","u","yes","i","bubi","Training","bilabial","TrainingItems",0,80,80,84,NA,NA,NA,NA,NA,NA,NA,NA,NA,NA,20,FALSE,20,59.9097276976,"Chinese","American English","VSH_Exp2","2016_Mar_02_1818",NA
"Recordings/budu.wav","yes","b","d","u","yes","u","budu","Training","bilabial","TrainingItems",0,81,81,14,NA,NA,NA,NA,NA,NA,NA,NA,NA,NA,20,FALSE,20,59.9097276976,"Chinese","American English","VSH_Exp2","2016_Mar_02_1818",NA
"Recordings/zuvu.wav","yes","z","v","u","no","u","zuvu","Training","alveolar","TrainingItems",0,82,82,4,NA,NA,NA,NA,NA,NA,NA,NA,NA,NA,20,FALSE,20,59.9097276976,"Chinese","American English","VSH_Exp2","2016_Mar_02_1818",NA
"Recordings/fisu.wav","no","f","s","i","no","u","fisu","Training","bilabial","TrainingItems",0,83,83,83,NA,NA,NA,NA,NA,NA,NA,NA,NA,NA,20,FALSE,20,59.9097276976,"Chinese","American English","VSH_Exp2","2016_Mar_02_1818",NA
"Recordings/vavi.wav","yes","v","v","a","no","i","vavi","Training","bilabial","TrainingItems",0,84,84,28,NA,NA,NA,NA,NA,NA,NA,NA,NA,NA,20,FALSE,20,59.9097276976,"Chinese","American English","VSH_Exp2","2016_Mar_02_1818",NA
"Recordings/tata.wav","no","t","t","a","yes","a","tata","Training","alveolar","TrainingItems",0,85,85,37,NA,NA,NA,NA,NA,NA,NA,NA,NA,NA,20,FALSE,20,59.9097276976,"Chinese","American English","VSH_Exp2","2016_Mar_02_1818",NA
"Recordings/zivu.wav","yes","z","v","i","no","u","zivu","Training","alveolar","TrainingItems",0,86,86,46,NA,NA,NA,NA,NA,NA,NA,NA,NA,NA,20,FALSE,20,59.9097276976,"Chinese","American English","VSH_Exp2","2016_Mar_02_1818",NA
"Recordings/vizu.wav","yes","v","z","i","no","u","vizu","Training","bilabial","TrainingItems",0,87,87,54,NA,NA,NA,NA,NA,NA,NA,NA,NA,NA,20,FALSE,20,59.9097276976,"Chinese","American English","VSH_Exp2","2016_Mar_02_1818",NA
"Recordings/pipu.wav","no","p","p","i","yes","u","pipu","Training","bilabial","TrainingItems",0,88,88,62,NA,NA,NA,NA,NA,NA,NA,NA,NA,NA,20,FALSE,20,59.9097276976,"Chinese","American English","VSH_Exp2","2016_Mar_02_1818",NA
"Recordings/bibi.wav","yes","b","b","i","yes","i","bibi","Training","bilabial","TrainingItems",0,89,89,23,NA,NA,NA,NA,NA,NA,NA,NA,NA,NA,20,FALSE,20,59.9097276976,"Chinese","American English","VSH_Exp2","2016_Mar_02_1818",NA
"Recordings/titu.wav","no","t","t","i","yes","u","titu","Training","alveolar","TrainingItems",0,90,90,96,NA,NA,NA,NA,NA,NA,NA,NA,NA,NA,20,FALSE,20,59.9097276976,"Chinese","American English","VSH_Exp2","2016_Mar_02_1818",NA
"Recordings/zazi.wav","yes","z","z","a","no","i","zazi","Training","alveolar","TrainingItems",0,91,91,31,NA,NA,NA,NA,NA,NA,NA,NA,NA,NA,20,FALSE,20,59.9097276976,"Chinese","American English","VSH_Exp2","2016_Mar_02_1818",NA
"Recordings/vuza.wav","yes","v","z","u","no","a","vuza","Training","bilabial","TrainingItems",0,92,92,44,NA,NA,NA,NA,NA,NA,NA,NA,NA,NA,20,FALSE,20,59.9097276976,"Chinese","American English","VSH_Exp2","2016_Mar_02_1818",NA
"Recordings/tita.wav","no","t","t","i","yes","a","tita","Training","alveolar","TrainingItems",0,93,93,92,NA,NA,NA,NA,NA,NA,NA,NA,NA,NA,20,FALSE,20,59.9097276976,"Chinese","American English","VSH_Exp2","2016_Mar_02_1818",NA
"Recordings/fafi.wav","no","f","f","a","no","i","fafi","Training","bilabial","TrainingItems",0,94,94,0,NA,NA,NA,NA,NA,NA,NA,NA,NA,NA,20,FALSE,20,59.9097276976,"Chinese","American English","VSH_Exp2","2016_Mar_02_1818",NA
"Recordings/buba.wav","yes","b","b","u","yes","a","buba","Training","bilabial","TrainingItems",0,95,95,43,NA,NA,NA,NA,NA,NA,NA,NA,NA,NA,20,FALSE,20,59.9097276976,"Chinese","American English","VSH_Exp2","2016_Mar_02_1818",NA
"Recordings/fafa.wav","no","f","f","a","no","a","fafa","Training","bilabial","TrainingItems",0,96,96,87,NA,NA,NA,NA,NA,NA,NA,NA,NA,NA,20,FALSE,20,59.9097276976,"Chinese","American English","VSH_Exp2","2016_Mar_02_1818",NA
"Recordings/zizi.wav","yes","z","z","i","no","i","zizi","Training","alveolar","TrainingItems",0,97,97,66,NA,NA,NA,NA,NA,NA,NA,NA,NA,NA,20,FALSE,20,59.9097276976,"Chinese","American English","VSH_Exp2","2016_Mar_02_1818",NA
"Recordings/viva.wav","yes","v","v","i","no","a","viva","Training","bilabial","TrainingItems",0,98,98,51,NA,NA,NA,NA,NA,NA,NA,NA,NA,NA,20,FALSE,20,59.9097276976,"Chinese","American English","VSH_Exp2","2016_Mar_02_1818",NA
"Recordings/tuta.wav","no","t","t","u","yes","a","tuta","Training","alveolar","TrainingItems",0,99,99,26,NA,NA,NA,NA,NA,NA,NA,NA,NA,NA,20,FALSE,20,59.9097276976,"Chinese","American English","VSH_Exp2","2016_Mar_02_1818",NA
"Recordings/fusi.wav","no","f","s","u","no","i","fusi","Training","bilabial","TrainingItems",1,0,100,18,NA,NA,NA,NA,NA,NA,NA,NA,NA,NA,20,FALSE,20,59.9097276976,"Chinese","American English","VSH_Exp2","2016_Mar_02_1818",NA
"Recordings/buda.wav","yes","b","d","u","yes","a","buda","Training","bilabial","TrainingItems",1,1,101,25,NA,NA,NA,NA,NA,NA,NA,NA,NA,NA,20,FALSE,20,59.9097276976,"Chinese","American English","VSH_Exp2","2016_Mar_02_1818",NA
"Recordings/tatu.wav","no","t","t","a","yes","u","tatu","Training","alveolar","TrainingItems",1,2,102,55,NA,NA,NA,NA,NA,NA,NA,NA,NA,NA,20,FALSE,20,59.9097276976,"Chinese","American English","VSH_Exp2","2016_Mar_02_1818",NA
"Recordings/fusa.wav","no","f","s","u","no","a","fusa","Training","bilabial","TrainingItems",1,3,103,53,NA,NA,NA,NA,NA,NA,NA,NA,NA,NA,20,FALSE,20,59.9097276976,"Chinese","American English","VSH_Exp2","2016_Mar_02_1818",NA
"Recordings/daba.wav","yes","d","b","a","yes","a","daba","Training","alveolar","TrainingItems",1,4,104,75,NA,NA,NA,NA,NA,NA,NA,NA,NA,NA,20,FALSE,20,59.9097276976,"Chinese","American English","VSH_Exp2","2016_Mar_02_1818",NA
"Recordings/sifi.wav","no","s","f","i","no","i","sifi","Training","alveolar","TrainingItems",1,5,105,35,NA,NA,NA,NA,NA,NA,NA,NA,NA,NA,20,FALSE,20,59.9097276976,"Chinese","American English","VSH_Exp2","2016_Mar_02_1818",NA
"Recordings/dudu.wav","yes","d","d","u","yes","u","dudu","Training","alveolar","TrainingItems",1,6,106,77,NA,NA,NA,NA,NA,NA,NA,NA,NA,NA,20,FALSE,20,59.9097276976,"Chinese","American English","VSH_Exp2","2016_Mar_02_1818",NA
"Recordings/zivu.wav","yes","z","v","i","no","u","zivu","Training","alveolar","TrainingItems",1,7,107,46,NA,NA,NA,NA,NA,NA,NA,NA,NA,NA,20,FALSE,20,59.9097276976,"Chinese","American English","VSH_Exp2","2016_Mar_02_1818",NA
"Recordings/tutu.wav","no","t","t","u","yes","u","tutu","Training","alveolar","TrainingItems",1,8,108,76,NA,NA,NA,NA,NA,NA,NA,NA,NA,NA,20,FALSE,20,59.9097276976,"Chinese","American English","VSH_Exp2","2016_Mar_02_1818",NA
"Recordings/zizi.wav","yes","z","z","i","no","i","zizi","Training","alveolar","TrainingItems",1,9,109,66,NA,NA,NA,NA,NA,NA,NA,NA,NA,NA,20,FALSE,20,59.9097276976,"Chinese","American English","VSH_Exp2","2016_Mar_02_1818",NA
"Recordings/tati.wav","no","t","t","a","yes","i","tati","Training","alveolar","TrainingItems",1,10,110,88,NA,NA,NA,NA,NA,NA,NA,NA,NA,NA,20,FALSE,20,59.9097276976,"Chinese","American English","VSH_Exp2","2016_Mar_02_1818",NA
"Recordings/baba.wav","yes","b","b","a","yes","a","baba","Training","bilabial","TrainingItems",1,11,111,90,NA,NA,NA,NA,NA,NA,NA,NA,NA,NA,20,FALSE,20,59.9097276976,"Chinese","American English","VSH_Exp2","2016_Mar_02_1818",NA
"Recordings/biba.wav","yes","b","b","i","yes","a","biba","Training","bilabial","TrainingItems",1,12,112,40,NA,NA,NA,NA,NA,NA,NA,NA,NA,NA,20,FALSE,20,59.9097276976,"Chinese","American English","VSH_Exp2","2016_Mar_02_1818",NA
"Recordings/fisa.wav","no","f","s","i","no","a","fisa","Training","bilabial","TrainingItems",1,13,113,85,NA,NA,NA,NA,NA,NA,NA,NA,NA,NA,20,FALSE,20,59.9097276976,"Chinese","American English","VSH_Exp2","2016_Mar_02_1818",NA
"Recordings/vizu.wav","yes","v","z","i","no","u","vizu","Training","bilabial","TrainingItems",1,14,114,54,NA,NA,NA,NA,NA,NA,NA,NA,NA,NA,20,FALSE,20,59.9097276976,"Chinese","American English","VSH_Exp2","2016_Mar_02_1818",NA
"Recordings/viva.wav","yes","v","v","i","no","a","viva","Training","bilabial","TrainingItems",1,15,115,51,NA,NA,NA,NA,NA,NA,NA,NA,NA,NA,20,FALSE,20,59.9097276976,"Chinese","American English","VSH_Exp2","2016_Mar_02_1818",NA
"Recordings/sufu.wav","no","s","f","u","no","u","sufu","Training","alveolar","TrainingItems",1,16,116,80,NA,NA,NA,NA,NA,NA,NA,NA,NA,NA,20,FALSE,20,59.9097276976,"Chinese","American English","VSH_Exp2","2016_Mar_02_1818",NA
"Recordings/zazi.wav","yes","z","z","a","no","i","zazi","Training","alveolar","TrainingItems",1,17,117,31,NA,NA,NA,NA,NA,NA,NA,NA,NA,NA,20,FALSE,20,59.9097276976,"Chinese","American English","VSH_Exp2","2016_Mar_02_1818",NA
"Recordings/tuta.wav","no","t","t","u","yes","a","tuta","Training","alveolar","TrainingItems",1,18,118,26,NA,NA,NA,NA,NA,NA,NA,NA,NA,NA,20,FALSE,20,59.9097276976,"Chinese","American English","VSH_Exp2","2016_Mar_02_1818",NA
"Recordings/titu.wav","no","t","t","i","yes","u","titu","Training","alveolar","TrainingItems",1,19,119,96,NA,NA,NA,NA,NA,NA,NA,NA,NA,NA,20,FALSE,20,59.9097276976,"Chinese","American English","VSH_Exp2","2016_Mar_02_1818",NA
"Recordings/zuza.wav","yes","z","z","u","no","a","zuza","Training","alveolar","TrainingItems",1,20,120,93,NA,NA,NA,NA,NA,NA,NA,NA,NA,NA,20,FALSE,20,59.9097276976,"Chinese","American English","VSH_Exp2","2016_Mar_02_1818",NA
"Recordings/dadi.wav","yes","d","d","a","yes","i","dadi","Training","alveolar","TrainingItems",1,21,121,71,NA,NA,NA,NA,NA,NA,NA,NA,NA,NA,20,FALSE,20,59.9097276976,"Chinese","American English","VSH_Exp2","2016_Mar_02_1818",NA
"Recordings/fisi.wav","no","f","s","i","no","i","fisi","Training","bilabial","TrainingItems",1,22,122,24,NA,NA,NA,NA,NA,NA,NA,NA,NA,NA,20,FALSE,20,59.9097276976,"Chinese","American English","VSH_Exp2","2016_Mar_02_1818",NA
"Recordings/sisa.wav","no","s","s","i","no","a","sisa","Training","alveolar","TrainingItems",1,23,123,21,NA,NA,NA,NA,NA,NA,NA,NA,NA,NA,20,FALSE,20,59.9097276976,"Chinese","American English","VSH_Exp2","2016_Mar_02_1818",NA
"Recordings/vazu.wav","yes","v","z","a","no","u","vazu","Training","bilabial","TrainingItems",1,24,124,16,NA,NA,NA,NA,NA,NA,NA,NA,NA,NA,20,FALSE,20,59.9097276976,"Chinese","American English","VSH_Exp2","2016_Mar_02_1818",NA
"Recordings/susi.wav","no","s","s","u","no","i","susi","Training","alveolar","TrainingItems",1,25,125,97,NA,NA,NA,NA,NA,NA,NA,NA,NA,NA,20,FALSE,20,59.9097276976,"Chinese","American English","VSH_Exp2","2016_Mar_02_1818",NA
"Recordings/safi.wav","no","s","f","a","no","i","safi","Training","alveolar","TrainingItems",1,26,126,10,NA,NA,NA,NA,NA,NA,NA,NA,NA,NA,20,FALSE,20,59.9097276976,"Chinese","American English","VSH_Exp2","2016_Mar_02_1818",NA
"Recordings/fufa.wav","no","f","f","u","no","a","fufa","Training","bilabial","TrainingItems",1,27,127,79,NA,NA,NA,NA,NA,NA,NA,NA,NA,NA,20,FALSE,20,59.9097276976,"Chinese","American English","VSH_Exp2","2016_Mar_02_1818",NA
"Recordings/vuva.wav","yes","v","v","u","no","a","vuva","Training","bilabial","TrainingItems",1,28,128,72,NA,NA,NA,NA,NA,NA,NA,NA,NA,NA,20,FALSE,20,59.9097276976,"Chinese","American English","VSH_Exp2","2016_Mar_02_1818",NA
"Recordings/fafi.wav","no","f","f","a","no","i","fafi","Training","bilabial","TrainingItems",1,29,129,0,NA,NA,NA,NA,NA,NA,NA,NA,NA,NA,20,FALSE,20,59.9097276976,"Chinese","American English","VSH_Exp2","2016_Mar_02_1818",NA
"Recordings/didi.wav","yes","d","d","i","yes","i","didi","Training","alveolar","TrainingItems",1,30,130,68,NA,NA,NA,NA,NA,NA,NA,NA,NA,NA,20,FALSE,20,59.9097276976,"Chinese","American English","VSH_Exp2","2016_Mar_02_1818",NA
"Recordings/fafa.wav","no","f","f","a","no","a","fafa","Training","bilabial","TrainingItems",1,31,131,87,NA,NA,NA,NA,NA,NA,NA,NA,NA,NA,20,FALSE,20,59.9097276976,"Chinese","American English","VSH_Exp2","2016_Mar_02_1818",NA
"Recordings/fasu.wav","no","f","s","a","no","u","fasu","Training","bilabial","TrainingItems",1,32,132,91,NA,NA,NA,NA,NA,NA,NA,NA,NA,NA,20,FALSE,20,59.9097276976,"Chinese","American English","VSH_Exp2","2016_Mar_02_1818",NA
"Recordings/vuza.wav","yes","v","z","u","no","a","vuza","Training","bilabial","TrainingItems",1,33,133,44,NA,NA,NA,NA,NA,NA,NA,NA,NA,NA,20,FALSE,20,59.9097276976,"Chinese","American English","VSH_Exp2","2016_Mar_02_1818",NA
"Recordings/vuvi.wav","yes","v","v","u","no","i","vuvi","Training","bilabial","TrainingItems",1,34,134,57,NA,NA,NA,NA,NA,NA,NA,NA,NA,NA,20,FALSE,20,59.9097276976,"Chinese","American English","VSH_Exp2","2016_Mar_02_1818",NA
"Recordings/zuvu.wav","yes","z","v","u","no","u","zuvu","Training","alveolar","TrainingItems",1,35,135,4,NA,NA,NA,NA,NA,NA,NA,NA,NA,NA,20,FALSE,20,59.9097276976,"Chinese","American English","VSH_Exp2","2016_Mar_02_1818",NA
"Recordings/vazi.wav","yes","v","z","a","no","i","vazi","Training","bilabial","TrainingItems",1,36,136,70,NA,NA,NA,NA,NA,NA,NA,NA,NA,NA,20,FALSE,20,59.9097276976,"Chinese","American English","VSH_Exp2","2016_Mar_02_1818",NA
"Recordings/pupi.wav","no","p","p","u","yes","i","pupi","Training","bilabial","TrainingItems",1,37,137,29,NA,NA,NA,NA,NA,NA,NA,NA,NA,NA,20,FALSE,20,59.9097276976,"Chinese","American English","VSH_Exp2","2016_Mar_02_1818",NA
"Recordings/fifu.wav","no","f","f","i","no","u","fifu","Training","bilabial","TrainingItems",1,38,138,52,NA,NA,NA,NA,NA,NA,NA,NA,NA,NA,20,FALSE,20,59.9097276976,"Chinese","American English","VSH_Exp2","2016_Mar_02_1818",NA
"Recordings/bidi.wav","yes","b","d","i","yes","i","bidi","Training","bilabial","TrainingItems",1,39,139,98,NA,NA,NA,NA,NA,NA,NA,NA,NA,NA,20,FALSE,20,59.9097276976,"Chinese","American English","VSH_Exp2","2016_Mar_02_1818",NA
"Recordings/sufa.wav","no","s","f","u","no","a","sufa","Training","alveolar","TrainingItems",1,40,140,27,NA,NA,NA,NA,NA,NA,NA,NA,NA,NA,20,FALSE,20,59.9097276976,"Chinese","American English","VSH_Exp2","2016_Mar_02_1818",NA
"Recordings/zuzu.wav","yes","z","z","u","no","u","zuzu","Training","alveolar","TrainingItems",1,41,141,5,NA,NA,NA,NA,NA,NA,NA,NA,NA,NA,20,FALSE,20,59.9097276976,"Chinese","American English","VSH_Exp2","2016_Mar_02_1818",NA
"Recordings/vizi.wav","yes","v","z","i","no","i","vizi","Training","bilabial","TrainingItems",1,42,142,9,NA,NA,NA,NA,NA,NA,NA,NA,NA,NA,20,FALSE,20,59.9097276976,"Chinese","American English","VSH_Exp2","2016_Mar_02_1818",NA
"Recordings/fafu.wav","no","f","f","a","no","u","fafu","Training","bilabial","TrainingItems",1,43,143,59,NA,NA,NA,NA,NA,NA,NA,NA,NA,NA,20,FALSE,20,59.9097276976,"Chinese","American English","VSH_Exp2","2016_Mar_02_1818",NA
"Recordings/bubu.wav","yes","b","b","u","yes","u","bubu","Training","bilabial","TrainingItems",1,44,144,49,NA,NA,NA,NA,NA,NA,NA,NA,NA,NA,20,FALSE,20,59.9097276976,"Chinese","American English","VSH_Exp2","2016_Mar_02_1818",NA
"Recordings/tuti.wav","no","t","t","u","yes","i","tuti","Training","alveolar","TrainingItems",1,45,145,12,NA,NA,NA,NA,NA,NA,NA,NA,NA,NA,20,FALSE,20,59.9097276976,"Chinese","American English","VSH_Exp2","2016_Mar_02_1818",NA
"Recordings/safu.wav","no","s","f","a","no","u","safu","Training","alveolar","TrainingItems",1,46,146,65,NA,NA,NA,NA,NA,NA,NA,NA,NA,NA,20,FALSE,20,59.9097276976,"Chinese","American English","VSH_Exp2","2016_Mar_02_1818",NA
"Recordings/tita.wav","no","t","t","i","yes","a","tita","Training","alveolar","TrainingItems",1,47,147,92,NA,NA,NA,NA,NA,NA,NA,NA,NA,NA,20,FALSE,20,59.9097276976,"Chinese","American English","VSH_Exp2","2016_Mar_02_1818",NA
"Recordings/ziza.wav","yes","z","z","i","no","a","ziza","Training","alveolar","TrainingItems",1,48,148,86,NA,NA,NA,NA,NA,NA,NA,NA,NA,NA,20,FALSE,20,59.9097276976,"Chinese","American English","VSH_Exp2","2016_Mar_02_1818",NA
"Recordings/susa.wav","no","s","s","u","no","a","susa","Training","alveolar","TrainingItems",1,49,149,3,NA,NA,NA,NA,NA,NA,NA,NA,NA,NA,20,FALSE,20,59.9097276976,"Chinese","American English","VSH_Exp2","2016_Mar_02_1818",NA
"Recordings/zavi.wav","yes","z","v","a","no","i","zavi","Training","alveolar","TrainingItems",1,50,150,67,NA,NA,NA,NA,NA,NA,NA,NA,NA,NA,20,FALSE,20,59.9097276976,"Chinese","American English","VSH_Exp2","2016_Mar_02_1818",NA
"Recordings/fisu.wav","no","f","s","i","no","u","fisu","Training","bilabial","TrainingItems",1,51,151,83,NA,NA,NA,NA,NA,NA,NA,NA,NA,NA,20,FALSE,20,59.9097276976,"Chinese","American English","VSH_Exp2","2016_Mar_02_1818",NA
"Recordings/fufi.wav","no","f","f","u","no","i","fufi","Training","bilabial","TrainingItems",1,52,152,38,NA,NA,NA,NA,NA,NA,NA,NA,NA,NA,20,FALSE,20,59.9097276976,"Chinese","American English","VSH_Exp2","2016_Mar_02_1818",NA
"Recordings/papi.wav","no","p","p","a","yes","i","papi","Training","bilabial","TrainingItems",1,53,153,99,NA,NA,NA,NA,NA,NA,NA,NA,NA,NA,20,FALSE,20,59.9097276976,"Chinese","American English","VSH_Exp2","2016_Mar_02_1818",NA
"Recordings/vuzu.wav","yes","v","z","u","no","u","vuzu","Training","bilabial","TrainingItems",1,54,154,30,NA,NA,NA,NA,NA,NA,NA,NA,NA,NA,20,FALSE,20,59.9097276976,"Chinese","American English","VSH_Exp2","2016_Mar_02_1818",NA
"Recordings/bibu.wav","yes","b","b","i","yes","u","bibu","Training","bilabial","TrainingItems",1,55,155,22,NA,NA,NA,NA,NA,NA,NA,NA,NA,NA,20,FALSE,20,59.9097276976,"Chinese","American English","VSH_Exp2","2016_Mar_02_1818",NA
"Recordings/zuvi.wav","yes","z","v","u","no","i","zuvi","Training","alveolar","TrainingItems",1,56,156,47,NA,NA,NA,NA,NA,NA,NA,NA,NA,NA,20,FALSE,20,59.9097276976,"Chinese","American English","VSH_Exp2","2016_Mar_02_1818",NA
"Recordings/sifa.wav","no","s","f","i","no","a","sifa","Training","alveolar","TrainingItems",1,57,157,8,NA,NA,NA,NA,NA,NA,NA,NA,NA,NA,20,FALSE,20,59.9097276976,"Chinese","American English","VSH_Exp2","2016_Mar_02_1818",NA
"Recordings/vuvu.wav","yes","v","v","u","no","u","vuvu","Training","bilabial","TrainingItems",1,58,158,89,NA,NA,NA,NA,NA,NA,NA,NA,NA,NA,20,FALSE,20,59.9097276976,"Chinese","American English","VSH_Exp2","2016_Mar_02_1818",NA
"Recordings/dabu.wav","yes","d","b","a","yes","u","dabu","Training","alveolar","TrainingItems",1,59,159,17,NA,NA,NA,NA,NA,NA,NA,NA,NA,NA,20,FALSE,20,59.9097276976,"Chinese","American English","VSH_Exp2","2016_Mar_02_1818",NA
"Recordings/sisu.wav","no","s","s","i","no","u","sisu","Training","alveolar","TrainingItems",1,60,160,7,NA,NA,NA,NA,NA,NA,NA,NA,NA,NA,20,FALSE,20,59.9097276976,"Chinese","American English","VSH_Exp2","2016_Mar_02_1818",NA
"Recordings/vaza.wav","yes","v","z","a","no","a","vaza","Training","bilabial","TrainingItems",1,61,161,73,NA,NA,NA,NA,NA,NA,NA,NA,NA,NA,20,FALSE,20,59.9097276976,"Chinese","American English","VSH_Exp2","2016_Mar_02_1818",NA
"Recordings/dabi.wav","yes","d","b","a","yes","i","dabi","Training","alveolar","TrainingItems",1,62,162,45,NA,NA,NA,NA,NA,NA,NA,NA,NA,NA,20,FALSE,20,59.9097276976,"Chinese","American English","VSH_Exp2","2016_Mar_02_1818",NA
"Recordings/viza.wav","yes","v","z","i","no","a","viza","Training","bilabial","TrainingItems",1,63,163,78,NA,NA,NA,NA,NA,NA,NA,NA,NA,NA,20,FALSE,20,59.9097276976,"Chinese","American English","VSH_Exp2","2016_Mar_02_1818",NA
"Recordings/duda.wav","yes","d","d","u","yes","a","duda","Training","alveolar","TrainingItems",1,64,164,2,NA,NA,NA,NA,NA,NA,NA,NA,NA,NA,20,FALSE,20,59.9097276976,"Chinese","American English","VSH_Exp2","2016_Mar_02_1818",NA
"Recordings/zizu.wav","yes","z","z","i","no","u","zizu","Training","alveolar","TrainingItems",1,65,165,82,NA,NA,NA,NA,NA,NA,NA,NA,NA,NA,20,FALSE,20,59.9097276976,"Chinese","American English","VSH_Exp2","2016_Mar_02_1818",NA
"Recordings/didu.wav","yes","d","d","i","yes","u","didu","Training","alveolar","TrainingItems",1,66,166,20,NA,NA,NA,NA,NA,NA,NA,NA,NA,NA,20,FALSE,20,59.9097276976,"Chinese","American English","VSH_Exp2","2016_Mar_02_1818",NA
"Recordings/badi.wav","yes","b","d","a","yes","i","badi","Training","bilabial","TrainingItems",1,67,167,41,NA,NA,NA,NA,NA,NA,NA,NA,NA,NA,20,FALSE,20,59.9097276976,"Chinese","American English","VSH_Exp2","2016_Mar_02_1818",NA
"Recordings/titi.wav","no","t","t","i","yes","i","titi","Training","alveolar","TrainingItems",1,68,168,81,NA,NA,NA,NA,NA,NA,NA,NA,NA,NA,20,FALSE,20,59.9097276976,"Chinese","American English","VSH_Exp2","2016_Mar_02_1818",NA
"Recordings/budu.wav","yes","b","d","u","yes","u","budu","Training","bilabial","TrainingItems",1,69,169,14,NA,NA,NA,NA,NA,NA,NA,NA,NA,NA,20,FALSE,20,59.9097276976,"Chinese","American English","VSH_Exp2","2016_Mar_02_1818",NA
"Recordings/bada.wav","yes","b","d","a","yes","a","bada","Training","bilabial","TrainingItems",1,70,170,13,NA,NA,NA,NA,NA,NA,NA,NA,NA,NA,20,FALSE,20,59.9097276976,"Chinese","American English","VSH_Exp2","2016_Mar_02_1818",NA
"Recordings/sasa.wav","no","s","s","a","no","a","sasa","Training","alveolar","TrainingItems",1,71,171,15,NA,NA,NA,NA,NA,NA,NA,NA,NA,NA,20,FALSE,20,59.9097276976,"Chinese","American English","VSH_Exp2","2016_Mar_02_1818",NA
"Recordings/bubi.wav","yes","b","b","u","yes","i","bubi","Training","bilabial","TrainingItems",1,72,172,84,NA,NA,NA,NA,NA,NA,NA,NA,NA,NA,20,FALSE,20,59.9097276976,"Chinese","American English","VSH_Exp2","2016_Mar_02_1818",NA
"Recordings/zuva.wav","yes","z","v","u","no","a","zuva","Training","alveolar","TrainingItems",1,73,173,36,NA,NA,NA,NA,NA,NA,NA,NA,NA,NA,20,FALSE,20,59.9097276976,"Chinese","American English","VSH_Exp2","2016_Mar_02_1818",NA
"Recordings/badu.wav","yes","b","d","a","yes","u","badu","Training","bilabial","TrainingItems",1,74,174,48,NA,NA,NA,NA,NA,NA,NA,NA,NA,NA,20,FALSE,20,59.9097276976,"Chinese","American English","VSH_Exp2","2016_Mar_02_1818",NA
"Recordings/dubu.wav","yes","d","b","u","yes","u","dubu","Training","alveolar","TrainingItems",1,75,175,64,NA,NA,NA,NA,NA,NA,NA,NA,NA,NA,20,FALSE,20,59.9097276976,"Chinese","American English","VSH_Exp2","2016_Mar_02_1818",NA
"Recordings/ziva.wav","yes","z","v","i","no","a","ziva","Training","alveolar","TrainingItems",1,76,176,61,NA,NA,NA,NA,NA,NA,NA,NA,NA,NA,20,FALSE,20,59.9097276976,"Chinese","American English","VSH_Exp2","2016_Mar_02_1818",NA
"Recordings/safa.wav","no","s","f","a","no","a","safa","Training","alveolar","TrainingItems",1,77,177,95,NA,NA,NA,NA,NA,NA,NA,NA,NA,NA,20,FALSE,20,59.9097276976,"Chinese","American English","VSH_Exp2","2016_Mar_02_1818",NA
"Recordings/bida.wav","yes","b","d","i","yes","a","bida","Training","bilabial","TrainingItems",1,78,178,6,NA,NA,NA,NA,NA,NA,NA,NA,NA,NA,20,FALSE,20,59.9097276976,"Chinese","American English","VSH_Exp2","2016_Mar_02_1818",NA
"Recordings/vava.wav","yes","v","v","a","no","a","vava","Training","bilabial","TrainingItems",1,79,179,58,NA,NA,NA,NA,NA,NA,NA,NA,NA,NA,20,FALSE,20,59.9097276976,"Chinese","American English","VSH_Exp2","2016_Mar_02_1818",NA
"Recordings/sasu.wav","no","s","s","a","no","u","sasu","Training","alveolar","TrainingItems",1,80,180,33,NA,NA,NA,NA,NA,NA,NA,NA,NA,NA,20,FALSE,20,59.9097276976,"Chinese","American English","VSH_Exp2","2016_Mar_02_1818",NA
"Recordings/duba.wav","yes","d","b","u","yes","a","duba","Training","alveolar","TrainingItems",1,81,181,39,NA,NA,NA,NA,NA,NA,NA,NA,NA,NA,20,FALSE,20,59.9097276976,"Chinese","American English","VSH_Exp2","2016_Mar_02_1818",NA
"Recordings/tata.wav","no","t","t","a","yes","a","tata","Training","alveolar","TrainingItems",1,82,182,37,NA,NA,NA,NA,NA,NA,NA,NA,NA,NA,20,FALSE,20,59.9097276976,"Chinese","American English","VSH_Exp2","2016_Mar_02_1818",NA
"Recordings/papa.wav","no","p","p","a","yes","a","papa","Training","bilabial","TrainingItems",1,83,183,74,NA,NA,NA,NA,NA,NA,NA,NA,NA,NA,20,FALSE,20,59.9097276976,"Chinese","American English","VSH_Exp2","2016_Mar_02_1818",NA
"Recordings/buba.wav","yes","b","b","u","yes","a","buba","Training","bilabial","TrainingItems",1,84,184,43,NA,NA,NA,NA,NA,NA,NA,NA,NA,NA,20,FALSE,20,59.9097276976,"Chinese","American English","VSH_Exp2","2016_Mar_02_1818",NA
"Recordings/fifa.wav","no","f","f","i","no","a","fifa","Training","bilabial","TrainingItems",1,85,185,50,NA,NA,NA,NA,NA,NA,NA,NA,NA,NA,20,FALSE,20,59.9097276976,"Chinese","American English","VSH_Exp2","2016_Mar_02_1818",NA
"Recordings/sisi.wav","no","s","s","i","no","i","sisi","Training","alveolar","TrainingItems",1,86,186,60,NA,NA,NA,NA,NA,NA,NA,NA,NA,NA,20,FALSE,20,59.9097276976,"Chinese","American English","VSH_Exp2","2016_Mar_02_1818",NA
"Recordings/vavi.wav","yes","v","v","a","no","i","vavi","Training","bilabial","TrainingItems",1,87,187,28,NA,NA,NA,NA,NA,NA,NA,NA,NA,NA,20,FALSE,20,59.9097276976,"Chinese","American English","VSH_Exp2","2016_Mar_02_1818",NA
"Recordings/zavu.wav","yes","z","v","a","no","u","zavu","Training","alveolar","TrainingItems",1,88,188,63,NA,NA,NA,NA,NA,NA,NA,NA,NA,NA,20,FALSE,20,59.9097276976,"Chinese","American English","VSH_Exp2","2016_Mar_02_1818",NA
"Recordings/sufi.wav","no","s","f","u","no","i","sufi","Training","alveolar","TrainingItems",1,89,189,69,NA,NA,NA,NA,NA,NA,NA,NA,NA,NA,20,FALSE,20,59.9097276976,"Chinese","American English","VSH_Exp2","2016_Mar_02_1818",NA
"Recordings/zivi.wav","yes","z","v","i","no","i","zivi","Training","alveolar","TrainingItems",1,90,190,56,NA,NA,NA,NA,NA,NA,NA,NA,NA,NA,20,FALSE,20,59.9097276976,"Chinese","American English","VSH_Exp2","2016_Mar_02_1818",NA
"Recordings/zazu.wav","yes","z","z","a","no","u","zazu","Training","alveolar","TrainingItems",1,91,191,34,NA,NA,NA,NA,NA,NA,NA,NA,NA,NA,20,FALSE,20,59.9097276976,"Chinese","American English","VSH_Exp2","2016_Mar_02_1818",NA
"Recordings/fasi.wav","no","f","s","a","no","i","fasi","Training","bilabial","TrainingItems",1,92,192,11,NA,NA,NA,NA,NA,NA,NA,NA,NA,NA,20,FALSE,20,59.9097276976,"Chinese","American English","VSH_Exp2","2016_Mar_02_1818",NA
"Recordings/pupu.wav","no","p","p","u","yes","u","pupu","Training","bilabial","TrainingItems",1,93,193,1,NA,NA,NA,NA,NA,NA,NA,NA,NA,NA,20,FALSE,20,59.9097276976,"Chinese","American English","VSH_Exp2","2016_Mar_02_1818",NA
"Recordings/zaza.wav","yes","z","z","a","no","a","zaza","Training","alveolar","TrainingItems",1,94,194,94,NA,NA,NA,NA,NA,NA,NA,NA,NA,NA,20,FALSE,20,59.9097276976,"Chinese","American English","VSH_Exp2","2016_Mar_02_1818",NA
"Recordings/bibi.wav","yes","b","b","i","yes","i","bibi","Training","bilabial","TrainingItems",1,95,195,23,NA,NA,NA,NA,NA,NA,NA,NA,NA,NA,20,FALSE,20,59.9097276976,"Chinese","American English","VSH_Exp2","2016_Mar_02_1818",NA
"Recordings/vivi.wav","yes","v","v","i","no","i","vivi","Training","bilabial","TrainingItems",1,96,196,42,NA,NA,NA,NA,NA,NA,NA,NA,NA,NA,20,FALSE,20,59.9097276976,"Chinese","American English","VSH_Exp2","2016_Mar_02_1818",NA
"Recordings/budi.wav","yes","b","d","u","yes","i","budi","Training","bilabial","TrainingItems",1,97,197,32,NA,NA,NA,NA,NA,NA,NA,NA,NA,NA,20,FALSE,20,59.9097276976,"Chinese","American English","VSH_Exp2","2016_Mar_02_1818",NA
"Recordings/babu.wav","yes","b","b","a","yes","u","babu","Training","bilabial","TrainingItems",1,98,198,19,NA,NA,NA,NA,NA,NA,NA,NA,NA,NA,20,FALSE,20,59.9097276976,"Chinese","American English","VSH_Exp2","2016_Mar_02_1818",NA
"Recordings/pipu.wav","no","p","p","i","yes","u","pipu","Training","bilabial","TrainingItems",1,99,199,62,NA,NA,NA,NA,NA,NA,NA,NA,NA,NA,20,FALSE,20,59.9097276976,"Chinese","American English","VSH_Exp2","2016_Mar_02_1818",NA
NA,NA,NA,NA,NA,NA,NA,NA,NA,NA,NA,NA,NA,NA,NA,NA,NA,NA,NA,NA,NA,"space",17.069175005,NA,NA,20,FALSE,20,59.9097276976,"Chinese","American English","VSH_Exp2","2016_Mar_02_1818",NA
"Recordings/fivi.wav","no","f","v","i","no","i","fivi","Controls","bilabial","StopControls",NA,NA,NA,NA,0,0,0,35,NA,NA,NA,NA,"None","None",20,FALSE,20,59.9097276976,"Chinese","American English","VSH_Exp2","2016_Mar_02_1818",NA
"Recordings/vivu.wav","yes","v","v","i","no","u","vivu","Test","bilabial","NewWordTestStimuli",NA,NA,NA,NA,0,1,1,28,NA,NA,NA,NA,"No","2.17",20,FALSE,20,59.9097276976,"Chinese","American English","VSH_Exp2","2016_Mar_02_1818",NA
"Recordings/dita.wav","yes","d","t","i","yes","a","dita","Controls","alveolar","StopControls",NA,NA,NA,NA,0,2,2,32,NA,NA,NA,NA,"No","1.755",20,FALSE,20,59.9097276976,"Chinese","American English","VSH_Exp2","2016_Mar_02_1818",NA
"Recordings/fusu.wav","no","f","s","u","no","u","fusu","Test","bilabial","NewWordTestStimuli",NA,NA,NA,NA,0,3,3,21,NA,NA,NA,NA,"Yes","2.423",20,FALSE,20,59.9097276976,"Chinese","American English","VSH_Exp2","2016_Mar_02_1818",NA
"Recordings/suva.wav","no","s","v","u","no","a","suva","Controls","alveolar","StopControls",NA,NA,NA,NA,0,4,4,34,NA,NA,NA,NA,"Yes","1.286",20,FALSE,20,59.9097276976,"Chinese","American English","VSH_Exp2","2016_Mar_02_1818",NA
"Recordings/pitu.wav","no","p","t","i","yes","u","pitu","Test","bilabial","NewConsTestStimuli",NA,NA,NA,NA,0,5,5,10,NA,NA,NA,NA,"Yes","2.288",20,FALSE,20,59.9097276976,"Chinese","American English","VSH_Exp2","2016_Mar_02_1818",NA
"Recordings/ziva.wav","yes","z","v","i","no","a","ziva","Test","alveolar","OldTestStimuli",NA,NA,NA,NA,0,6,6,7,NA,NA,NA,NA,"Yes","3.339",20,FALSE,20,59.9097276976,"Chinese","American English","VSH_Exp2","2016_Mar_02_1818",NA
"Recordings/papi.wav","no","p","p","a","yes","i","papi","Test","bilabial","OldTestStimuli",NA,NA,NA,NA,0,7,7,5,NA,NA,NA,NA,"Yes","2.823",20,FALSE,20,59.9097276976,"Chinese","American English","VSH_Exp2","2016_Mar_02_1818",NA
"Recordings/vuti.wav","yes","v","t","u","no","i","vuti","Controls","bilabial","NoPatternControls",NA,NA,NA,NA,0,8,8,59,NA,NA,NA,NA,"No","2.072",20,FALSE,20,59.9097276976,"Chinese","American English","VSH_Exp2","2016_Mar_02_1818",NA
"Recordings/fiva.wav","no","f","v","i","no","a","fiva","Controls","bilabial","StopControls",NA,NA,NA,NA,0,9,9,30,NA,NA,NA,NA,"Yes","2.271",20,FALSE,20,59.9097276976,"Chinese","American English","VSH_Exp2","2016_Mar_02_1818",NA
"Recordings/fipu.wav","no","f","p","i","no","u","fipu","Controls","bilabial","VoicingControls",NA,NA,NA,NA,0,10,10,40,NA,NA,NA,NA,"No","1.387",20,FALSE,20,59.9097276976,"Chinese","American English","VSH_Exp2","2016_Mar_02_1818",NA
"Recordings/siva.wav","no","s","v","i","no","a","siva","Controls","alveolar","StopControls",NA,NA,NA,NA,0,11,11,38,NA,NA,NA,NA,"Yes","4.507",20,FALSE,20,59.9097276976,"Chinese","American English","VSH_Exp2","2016_Mar_02_1818",NA
"Recordings/patu.wav","no","p","t","a","yes","u","patu","Test","bilabial","NewConsTestStimuli",NA,NA,NA,NA,0,12,12,12,NA,NA,NA,NA,"Yes","1.154",20,FALSE,20,59.9097276976,"Chinese","American English","VSH_Exp2","2016_Mar_02_1818",NA
"Recordings/bubu.wav","yes","b","b","u","yes","u","bubu","Test","bilabial","OldTestStimuli",NA,NA,NA,NA,0,13,13,1,NA,NA,NA,NA,"No","1.638",20,FALSE,20,59.9097276976,"Chinese","American English","VSH_Exp2","2016_Mar_02_1818",NA
"Recordings/sida.wav","no","s","d","i","no","a","sida","Controls","alveolar","NoPatternControls",NA,NA,NA,NA,0,14,14,58,NA,NA,NA,NA,"No","2.239",20,FALSE,20,59.9097276976,"Chinese","American English","VSH_Exp2","2016_Mar_02_1818",NA
"Recordings/supu.wav","no","s","p","u","no","u","supu","Controls","alveolar","VoicingControls",NA,NA,NA,NA,0,15,15,43,NA,NA,NA,NA,"No","0.986",20,FALSE,20,59.9097276976,"Chinese","American English","VSH_Exp2","2016_Mar_02_1818",NA
"Recordings/fita.wav","no","f","t","i","no","a","fita","Controls","bilabial","VoicingControls",NA,NA,NA,NA,0,16,16,45,NA,NA,NA,NA,"No","1.471",20,FALSE,20,59.9097276976,"Chinese","American English","VSH_Exp2","2016_Mar_02_1818",NA
"Recordings/zava.wav","yes","z","v","a","no","a","zava","Test","alveolar","NewWordTestStimuli",NA,NA,NA,NA,0,17,17,27,NA,NA,NA,NA,"Yes","2.373",20,FALSE,20,59.9097276976,"Chinese","American English","VSH_Exp2","2016_Mar_02_1818",NA
"Recordings/bazi.wav","yes","b","z","a","yes","i","bazi","Controls","bilabial","VoicingControls",NA,NA,NA,NA,0,18,18,46,NA,NA,NA,NA,"Yes","1.053",20,FALSE,20,59.9097276976,"Chinese","American English","VSH_Exp2","2016_Mar_02_1818",NA
"Recordings/bidi.wav","yes","b","d","i","yes","i","bidi","Test","bilabial","OldTestStimuli",NA,NA,NA,NA,0,19,19,4,NA,NA,NA,NA,"No","1.654",20,FALSE,20,59.9097276976,"Chinese","American English","VSH_Exp2","2016_Mar_02_1818",NA
"Recordings/pupa.wav","no","p","p","u","yes","a","pupa","Test","bilabial","NewWordTestStimuli",NA,NA,NA,NA,0,20,20,29,NA,NA,NA,NA,"No","1.836",20,FALSE,20,59.9097276976,"Chinese","American English","VSH_Exp2","2016_Mar_02_1818",NA
"Recordings/suvi.wav","no","s","v","u","no","i","suvi","Controls","alveolar","StopControls",NA,NA,NA,NA,0,21,21,33,NA,NA,NA,NA,"Yes","1.587",20,FALSE,20,59.9097276976,"Chinese","American English","VSH_Exp2","2016_Mar_02_1818",NA
"Recordings/susa.wav","no","s","s","u","no","a","susa","Test","alveolar","OldTestStimuli",NA,NA,NA,NA,0,22,22,6,NA,NA,NA,NA,"No","4.258",20,FALSE,20,59.9097276976,"Chinese","American English","VSH_Exp2","2016_Mar_02_1818",NA
"Recordings/sudi.wav","no","s","d","u","no","i","sudi","Controls","alveolar","NoPatternControls",NA,NA,NA,NA,0,23,23,54,NA,NA,NA,NA,"Yes","3.356",20,FALSE,20,59.9097276976,"Chinese","American English","VSH_Exp2","2016_Mar_02_1818",NA
"Recordings/fida.wav","no","f","d","i","no","a","fida","Controls","bilabial","NoPatternControls",NA,NA,NA,NA,0,24,24,50,NA,NA,NA,NA,"Yes","1.57",20,FALSE,20,59.9097276976,"Chinese","American English","VSH_Exp2","2016_Mar_02_1818",NA
"Recordings/bati.wav","yes","b","t","a","yes","i","bati","Controls","bilabial","StopControls",NA,NA,NA,NA,0,25,25,36,NA,NA,NA,NA,"Yes","4.106",20,FALSE,20,59.9097276976,"Chinese","American English","VSH_Exp2","2016_Mar_02_1818",NA
"Recordings/puti.wav","no","p","t","u","yes","i","puti","Test","bilabial","NewConsTestStimuli",NA,NA,NA,NA,0,26,26,18,NA,NA,NA,NA,"No","3.656",20,FALSE,20,59.9097276976,"Chinese","American English","VSH_Exp2","2016_Mar_02_1818",NA
"Recordings/fifa.wav","no","f","f","i","no","a","fifa","Test","bilabial","OldTestStimuli",NA,NA,NA,NA,0,27,27,3,NA,NA,NA,NA,"No","2.489",20,FALSE,20,59.9097276976,"Chinese","American English","VSH_Exp2","2016_Mar_02_1818",NA
"Recordings/piti.wav","no","p","t","i","yes","i","piti","Test","bilabial","NewConsTestStimuli",NA,NA,NA,NA,0,28,28,15,NA,NA,NA,NA,"No","0.971",20,FALSE,20,59.9097276976,"Chinese","American English","VSH_Exp2","2016_Mar_02_1818",NA
"Recordings/vuvi.wav","yes","v","v","u","no","i","vuvi","Test","bilabial","OldTestStimuli",NA,NA,NA,NA,0,29,29,8,NA,NA,NA,NA,"No","4.973",20,FALSE,20,59.9097276976,"Chinese","American English","VSH_Exp2","2016_Mar_02_1818",NA
"Recordings/tapi.wav","no","t","p","a","yes","i","tapi","Test","alveolar","NewConsTestStimuli",NA,NA,NA,NA,0,30,30,17,NA,NA,NA,NA,"Yes","4.339",20,FALSE,20,59.9097276976,"Chinese","American English","VSH_Exp2","2016_Mar_02_1818",NA
"Recordings/pata.wav","no","p","t","a","yes","a","pata","Test","bilabial","NewConsTestStimuli",NA,NA,NA,NA,0,31,31,16,NA,NA,NA,NA,"No","5.775",20,FALSE,20,59.9097276976,"Chinese","American English","VSH_Exp2","2016_Mar_02_1818",NA
"Recordings/tuzu.wav","no","t","z","u","yes","u","tuzu","Controls","alveolar","NoPatternControls",NA,NA,NA,NA,0,32,32,57,NA,NA,NA,NA,"Yes","2.039",20,FALSE,20,59.9097276976,"Chinese","American English","VSH_Exp2","2016_Mar_02_1818",NA
"Recordings/dada.wav","yes","d","d","a","yes","a","dada","Test","alveolar","NewWordTestStimuli",NA,NA,NA,NA,0,33,33,22,NA,NA,NA,NA,"No","2.187",20,FALSE,20,59.9097276976,"Chinese","American English","VSH_Exp2","2016_Mar_02_1818",NA
"Recordings/vuba.wav","yes","v","b","u","no","a","vuba","Controls","bilabial","VoicingControls",NA,NA,NA,NA,0,34,34,49,NA,NA,NA,NA,"No","2.421",20,FALSE,20,59.9097276976,"Chinese","American English","VSH_Exp2","2016_Mar_02_1818",NA
"Recordings/pasu.wav","no","p","s","a","yes","u","pasu","Controls","bilabial","VoicingControls",NA,NA,NA,NA,0,35,35,41,NA,NA,NA,NA,"No","2.906",20,FALSE,20,59.9097276976,"Chinese","American English","VSH_Exp2","2016_Mar_02_1818",NA
"Recordings/daba.wav","yes","d","b","a","yes","a","daba","Test","alveolar","OldTestStimuli",NA,NA,NA,NA,0,36,36,9,NA,NA,NA,NA,"No","0.803",20,FALSE,20,59.9097276976,"Chinese","American English","VSH_Exp2","2016_Mar_02_1818",NA
"Recordings/dida.wav","yes","d","d","i","yes","a","dida","Test","alveolar","NewWordTestStimuli",NA,NA,NA,NA,0,37,37,20,NA,NA,NA,NA,"No","0.702",20,FALSE,20,59.9097276976,"Chinese","American English","VSH_Exp2","2016_Mar_02_1818",NA
"Recordings/tupi.wav","no","t","p","u","yes","i","tupi","Test","alveolar","NewConsTestStimuli",NA,NA,NA,NA,0,38,38,19,NA,NA,NA,NA,"Yes","2.154",20,FALSE,20,59.9097276976,"Chinese","American English","VSH_Exp2","2016_Mar_02_1818",NA
"Recordings/tusu.wav","no","t","s","u","yes","u","tusu","Controls","alveolar","VoicingControls",NA,NA,NA,NA,0,39,39,47,NA,NA,NA,NA,"No","2.237",20,FALSE,20,59.9097276976,"Chinese","American English","VSH_Exp2","2016_Mar_02_1818",NA
"Recordings/budu.wav","yes","b","d","u","yes","u","budu","Test","bilabial","OldTestStimuli",NA,NA,NA,NA,0,40,40,2,NA,NA,NA,NA,"No","1.021",20,FALSE,20,59.9097276976,"Chinese","American English","VSH_Exp2","2016_Mar_02_1818",NA
"Recordings/budi.wav","yes","b","d","u","yes","i","budi","Test","bilabial","OldTestStimuli",NA,NA,NA,NA,0,41,41,0,NA,NA,NA,NA,"Yes","1.904",20,FALSE,20,59.9097276976,"Chinese","American English","VSH_Exp2","2016_Mar_02_1818",NA
"Recordings/sipi.wav","no","s","p","i","no","i","sipi","Controls","alveolar","VoicingControls",NA,NA,NA,NA,0,42,42,48,NA,NA,NA,NA,"Yes","2.521",20,FALSE,20,59.9097276976,"Chinese","American English","VSH_Exp2","2016_Mar_02_1818",NA
"Recordings/basi.wav","yes","b","s","a","yes","i","basi","Controls","bilabial","NoPatternControls",NA,NA,NA,NA,0,43,43,56,NA,NA,NA,NA,"Yes","1.921",20,FALSE,20,59.9097276976,"Chinese","American English","VSH_Exp2","2016_Mar_02_1818",NA
"Recordings/padu.wav","no","p","d","a","yes","u","padu","Controls","bilabial","StopControls",NA,NA,NA,NA,0,44,44,31,NA,NA,NA,NA,"No","2.606",20,FALSE,20,59.9097276976,"Chinese","American English","VSH_Exp2","2016_Mar_02_1818",NA
"Recordings/difi.wav","yes","d","f","i","yes","i","difi","Controls","alveolar","NoPatternControls",NA,NA,NA,NA,0,45,45,52,NA,NA,NA,NA,"No","1.053",20,FALSE,20,59.9097276976,"Chinese","American English","VSH_Exp2","2016_Mar_02_1818",NA
"Recordings/sibi.wav","no","s","b","i","no","i","sibi","Controls","alveolar","NoPatternControls",NA,NA,NA,NA,0,46,46,53,NA,NA,NA,NA,"No","1.036",20,FALSE,20,59.9097276976,"Chinese","American English","VSH_Exp2","2016_Mar_02_1818",NA
"Recordings/supi.wav","no","s","p","u","no","i","supi","Controls","alveolar","VoicingControls",NA,NA,NA,NA,0,47,47,44,NA,NA,NA,NA,"No","4.34",20,FALSE,20,59.9097276976,"Chinese","American English","VSH_Exp2","2016_Mar_02_1818",NA
"Recordings/vavu.wav","yes","v","v","a","no","u","vavu","Test","bilabial","NewWordTestStimuli",NA,NA,NA,NA,0,48,48,24,NA,NA,NA,NA,"No","1.171",20,FALSE,20,59.9097276976,"Chinese","American English","VSH_Exp2","2016_Mar_02_1818",NA
"Recordings/bidu.wav","yes","b","d","i","yes","u","bidu","Test","bilabial","NewWordTestStimuli",NA,NA,NA,NA,0,49,49,26,NA,NA,NA,NA,"No","0.803",20,FALSE,20,59.9097276976,"Chinese","American English","VSH_Exp2","2016_Mar_02_1818",NA
"Recordings/fufu.wav","no","f","f","u","no","u","fufu","Test","bilabial","NewWordTestStimuli",NA,NA,NA,NA,0,50,50,23,NA,NA,NA,NA,"No","0.986",20,FALSE,20,59.9097276976,"Chinese","American English","VSH_Exp2","2016_Mar_02_1818",NA
"Recordings/tadi.wav","no","t","d","a","yes","i","tadi","Controls","alveolar","StopControls",NA,NA,NA,NA,0,51,51,37,NA,NA,NA,NA,"Yes","1.721",20,FALSE,20,59.9097276976,"Chinese","American English","VSH_Exp2","2016_Mar_02_1818",NA
"Recordings/putu.wav","no","p","t","u","yes","u","putu","Test","bilabial","NewConsTestStimuli",NA,NA,NA,NA,0,52,52,11,NA,NA,NA,NA,"Yes","1.888",20,FALSE,20,59.9097276976,"Chinese","American English","VSH_Exp2","2016_Mar_02_1818",NA
"Recordings/diza.wav","yes","d","z","i","yes","a","diza","Controls","alveolar","VoicingControls",NA,NA,NA,NA,0,53,53,42,NA,NA,NA,NA,"Yes","4.508",20,FALSE,20,59.9097276976,"Chinese","American English","VSH_Exp2","2016_Mar_02_1818",NA
"Recordings/dibu.wav","yes","d","b","i","yes","u","dibu","Test","alveolar","NewWordTestStimuli",NA,NA,NA,NA,0,54,54,25,NA,NA,NA,NA,"Yes","2.821",20,FALSE,20,59.9097276976,"Chinese","American English","VSH_Exp2","2016_Mar_02_1818",NA
"Recordings/tipu.wav","no","t","p","i","yes","u","tipu","Test","alveolar","NewConsTestStimuli",NA,NA,NA,NA,0,55,55,14,NA,NA,NA,NA,"Yes","2.238",20,FALSE,20,59.9097276976,"Chinese","American English","VSH_Exp2","2016_Mar_02_1818",NA
"Recordings/vufa.wav","yes","v","f","u","no","a","vufa","Controls","bilabial","StopControls",NA,NA,NA,NA,0,56,56,39,NA,NA,NA,NA,"No","1.904",20,FALSE,20,59.9097276976,"Chinese","American English","VSH_Exp2","2016_Mar_02_1818",NA
"Recordings/puta.wav","no","p","t","u","yes","a","puta","Test","bilabial","NewConsTestStimuli",NA,NA,NA,NA,0,57,57,13,NA,NA,NA,NA,"No","2.373",20,FALSE,20,59.9097276976,"Chinese","American English","VSH_Exp2","2016_Mar_02_1818",NA
"Recordings/puza.wav","no","p","z","u","yes","a","puza","Controls","bilabial","NoPatternControls",NA,NA,NA,NA,0,58,58,51,NA,NA,NA,NA,"No","1.954",20,FALSE,20,59.9097276976,"Chinese","American English","VSH_Exp2","2016_Mar_02_1818",NA
"Recordings/faba.wav","no","f","b","a","no","a","faba","Controls","bilabial","NoPatternControls",NA,NA,NA,NA,0,59,59,55,NA,NA,NA,NA,"No","1.037",20,FALSE,20,59.9097276976,"Chinese","American English","VSH_Exp2","2016_Mar_02_1818",NA
