"SOUND","VOICING","SEGMENT","SEGMENT3","SEGMENT2","STOP","SEGMENT4","STIMULUS","GENERAL_TYPE","PLACE","TYPE","trials.thisRepN","trials.thisTrialN","trials.thisN","trials.thisIndex","trials_2.thisRepN","trials_2.thisTrialN","trials_2.thisN","trials_2.thisIndex","SpaceBar.keys","SpaceBar.rt","key_resp_2.keys","key_resp_2.rt","rating.response","rating.rt","participant","Gender","Age","frameRate","OtherLanguages","NativeLanguage","expName","date","X34"
NA,NA,NA,NA,NA,NA,NA,NA,NA,NA,NA,NA,NA,NA,NA,NA,NA,NA,NA,"space",1.78553199768,NA,NA,NA,NA,22,FALSE,18,59.8222293219,NA,"American English","VSH_Exp2","2016_Mar_02_1858",NA
"Recordings/bibi.wav","yes","b","b","i","yes","i","bibi","Training","bilabial","TrainingItems",0,0,0,9,NA,NA,NA,NA,NA,NA,NA,NA,NA,NA,22,FALSE,18,59.8222293219,NA,"American English","VSH_Exp2","2016_Mar_02_1858",NA
"Recordings/tipa.wav","no","t","p","i","yes","a","tipa","Training","alveolar","TrainingItems",0,1,1,99,NA,NA,NA,NA,NA,NA,NA,NA,NA,NA,22,FALSE,18,59.8222293219,NA,"American English","VSH_Exp2","2016_Mar_02_1858",NA
"Recordings/susi.wav","no","s","s","u","no","i","susi","Training","alveolar","TrainingItems",0,2,2,87,NA,NA,NA,NA,NA,NA,NA,NA,NA,NA,22,FALSE,18,59.8222293219,NA,"American English","VSH_Exp2","2016_Mar_02_1858",NA
"Recordings/duda.wav","yes","d","d","u","yes","a","duda","Training","alveolar","TrainingItems",0,3,3,8,NA,NA,NA,NA,NA,NA,NA,NA,NA,NA,22,FALSE,18,59.8222293219,NA,"American English","VSH_Exp2","2016_Mar_02_1858",NA
"Recordings/fifa.wav","no","f","f","i","no","a","fifa","Training","bilabial","TrainingItems",0,4,4,58,NA,NA,NA,NA,NA,NA,NA,NA,NA,NA,22,FALSE,18,59.8222293219,NA,"American English","VSH_Exp2","2016_Mar_02_1858",NA
"Recordings/fufa.wav","no","f","f","u","no","a","fufa","Training","bilabial","TrainingItems",0,5,5,72,NA,NA,NA,NA,NA,NA,NA,NA,NA,NA,22,FALSE,18,59.8222293219,NA,"American English","VSH_Exp2","2016_Mar_02_1858",NA
"Recordings/papu.wav","no","p","p","a","yes","u","papu","Training","bilabial","TrainingItems",0,6,6,74,NA,NA,NA,NA,NA,NA,NA,NA,NA,NA,22,FALSE,18,59.8222293219,NA,"American English","VSH_Exp2","2016_Mar_02_1858",NA
"Recordings/pipa.wav","no","p","p","i","yes","a","pipa","Training","bilabial","TrainingItems",0,7,7,29,NA,NA,NA,NA,NA,NA,NA,NA,NA,NA,22,FALSE,18,59.8222293219,NA,"American English","VSH_Exp2","2016_Mar_02_1858",NA
"Recordings/dudu.wav","yes","d","d","u","yes","u","dudu","Training","alveolar","TrainingItems",0,8,8,32,NA,NA,NA,NA,NA,NA,NA,NA,NA,NA,22,FALSE,18,59.8222293219,NA,"American English","VSH_Exp2","2016_Mar_02_1858",NA
"Recordings/pupi.wav","no","p","p","u","yes","i","pupi","Training","bilabial","TrainingItems",0,9,9,55,NA,NA,NA,NA,NA,NA,NA,NA,NA,NA,22,FALSE,18,59.8222293219,NA,"American English","VSH_Exp2","2016_Mar_02_1858",NA
"Recordings/zava.wav","yes","z","v","a","no","a","zava","Training","alveolar","TrainingItems",0,10,10,47,NA,NA,NA,NA,NA,NA,NA,NA,NA,NA,22,FALSE,18,59.8222293219,NA,"American English","VSH_Exp2","2016_Mar_02_1858",NA
"Recordings/vuzu.wav","yes","v","z","u","no","u","vuzu","Training","bilabial","TrainingItems",0,11,11,37,NA,NA,NA,NA,NA,NA,NA,NA,NA,NA,22,FALSE,18,59.8222293219,NA,"American English","VSH_Exp2","2016_Mar_02_1858",NA
"Recordings/tati.wav","no","t","t","a","yes","i","tati","Training","alveolar","TrainingItems",0,12,12,83,NA,NA,NA,NA,NA,NA,NA,NA,NA,NA,22,FALSE,18,59.8222293219,NA,"American English","VSH_Exp2","2016_Mar_02_1858",NA
"Recordings/vazu.wav","yes","v","z","a","no","u","vazu","Training","bilabial","TrainingItems",0,13,13,84,NA,NA,NA,NA,NA,NA,NA,NA,NA,NA,22,FALSE,18,59.8222293219,NA,"American English","VSH_Exp2","2016_Mar_02_1858",NA
"Recordings/tupa.wav","no","t","p","u","yes","a","tupa","Training","alveolar","TrainingItems",0,14,14,14,NA,NA,NA,NA,NA,NA,NA,NA,NA,NA,22,FALSE,18,59.8222293219,NA,"American English","VSH_Exp2","2016_Mar_02_1858",NA
"Recordings/titi.wav","no","t","t","i","yes","i","titi","Training","alveolar","TrainingItems",0,15,15,46,NA,NA,NA,NA,NA,NA,NA,NA,NA,NA,22,FALSE,18,59.8222293219,NA,"American English","VSH_Exp2","2016_Mar_02_1858",NA
"Recordings/vavu.wav","yes","v","v","a","no","u","vavu","Training","bilabial","TrainingItems",0,16,16,96,NA,NA,NA,NA,NA,NA,NA,NA,NA,NA,22,FALSE,18,59.8222293219,NA,"American English","VSH_Exp2","2016_Mar_02_1858",NA
"Recordings/pupa.wav","no","p","p","u","yes","a","pupa","Training","bilabial","TrainingItems",0,17,17,36,NA,NA,NA,NA,NA,NA,NA,NA,NA,NA,22,FALSE,18,59.8222293219,NA,"American English","VSH_Exp2","2016_Mar_02_1858",NA
"Recordings/zazi.wav","yes","z","z","a","no","i","zazi","Training","alveolar","TrainingItems",0,18,18,60,NA,NA,NA,NA,NA,NA,NA,NA,NA,NA,22,FALSE,18,59.8222293219,NA,"American English","VSH_Exp2","2016_Mar_02_1858",NA
"Recordings/ziza.wav","yes","z","z","i","no","a","ziza","Training","alveolar","TrainingItems",0,19,19,94,NA,NA,NA,NA,NA,NA,NA,NA,NA,NA,22,FALSE,18,59.8222293219,NA,"American English","VSH_Exp2","2016_Mar_02_1858",NA
"Recordings/duba.wav","yes","d","b","u","yes","a","duba","Training","alveolar","TrainingItems",0,20,20,4,NA,NA,NA,NA,NA,NA,NA,NA,NA,NA,22,FALSE,18,59.8222293219,NA,"American English","VSH_Exp2","2016_Mar_02_1858",NA
"Recordings/dubi.wav","yes","d","b","u","yes","i","dubi","Training","alveolar","TrainingItems",0,21,21,82,NA,NA,NA,NA,NA,NA,NA,NA,NA,NA,22,FALSE,18,59.8222293219,NA,"American English","VSH_Exp2","2016_Mar_02_1858",NA
"Recordings/dada.wav","yes","d","d","a","yes","a","dada","Training","alveolar","TrainingItems",0,22,22,93,NA,NA,NA,NA,NA,NA,NA,NA,NA,NA,22,FALSE,18,59.8222293219,NA,"American English","VSH_Exp2","2016_Mar_02_1858",NA
"Recordings/viza.wav","yes","v","z","i","no","a","viza","Training","bilabial","TrainingItems",0,23,23,6,NA,NA,NA,NA,NA,NA,NA,NA,NA,NA,22,FALSE,18,59.8222293219,NA,"American English","VSH_Exp2","2016_Mar_02_1858",NA
"Recordings/dida.wav","yes","d","d","i","yes","a","dida","Training","alveolar","TrainingItems",0,24,24,86,NA,NA,NA,NA,NA,NA,NA,NA,NA,NA,22,FALSE,18,59.8222293219,NA,"American English","VSH_Exp2","2016_Mar_02_1858",NA
"Recordings/babu.wav","yes","b","b","a","yes","u","babu","Training","bilabial","TrainingItems",0,25,25,24,NA,NA,NA,NA,NA,NA,NA,NA,NA,NA,22,FALSE,18,59.8222293219,NA,"American English","VSH_Exp2","2016_Mar_02_1858",NA
"Recordings/zaza.wav","yes","z","z","a","no","a","zaza","Training","alveolar","TrainingItems",0,26,26,88,NA,NA,NA,NA,NA,NA,NA,NA,NA,NA,22,FALSE,18,59.8222293219,NA,"American English","VSH_Exp2","2016_Mar_02_1858",NA
"Recordings/zuva.wav","yes","z","v","u","no","a","zuva","Training","alveolar","TrainingItems",0,27,27,89,NA,NA,NA,NA,NA,NA,NA,NA,NA,NA,22,FALSE,18,59.8222293219,NA,"American English","VSH_Exp2","2016_Mar_02_1858",NA
"Recordings/sisa.wav","no","s","s","i","no","a","sisa","Training","alveolar","TrainingItems",0,28,28,35,NA,NA,NA,NA,NA,NA,NA,NA,NA,NA,22,FALSE,18,59.8222293219,NA,"American English","VSH_Exp2","2016_Mar_02_1858",NA
"Recordings/tipi.wav","no","t","p","i","yes","i","tipi","Training","alveolar","TrainingItems",0,29,29,75,NA,NA,NA,NA,NA,NA,NA,NA,NA,NA,22,FALSE,18,59.8222293219,NA,"American English","VSH_Exp2","2016_Mar_02_1858",NA
"Recordings/vuzi.wav","yes","v","z","u","no","i","vuzi","Training","bilabial","TrainingItems",0,30,30,59,NA,NA,NA,NA,NA,NA,NA,NA,NA,NA,22,FALSE,18,59.8222293219,NA,"American English","VSH_Exp2","2016_Mar_02_1858",NA
"Recordings/vavi.wav","yes","v","v","a","no","i","vavi","Training","bilabial","TrainingItems",0,31,31,77,NA,NA,NA,NA,NA,NA,NA,NA,NA,NA,22,FALSE,18,59.8222293219,NA,"American English","VSH_Exp2","2016_Mar_02_1858",NA
"Recordings/zivu.wav","yes","z","v","i","no","u","zivu","Training","alveolar","TrainingItems",0,32,32,42,NA,NA,NA,NA,NA,NA,NA,NA,NA,NA,22,FALSE,18,59.8222293219,NA,"American English","VSH_Exp2","2016_Mar_02_1858",NA
"Recordings/zizi.wav","yes","z","z","i","no","i","zizi","Training","alveolar","TrainingItems",0,33,33,39,NA,NA,NA,NA,NA,NA,NA,NA,NA,NA,22,FALSE,18,59.8222293219,NA,"American English","VSH_Exp2","2016_Mar_02_1858",NA
"Recordings/fafa.wav","no","f","f","a","no","a","fafa","Training","bilabial","TrainingItems",0,34,34,68,NA,NA,NA,NA,NA,NA,NA,NA,NA,NA,22,FALSE,18,59.8222293219,NA,"American English","VSH_Exp2","2016_Mar_02_1858",NA
"Recordings/vuza.wav","yes","v","z","u","no","a","vuza","Training","bilabial","TrainingItems",0,35,35,57,NA,NA,NA,NA,NA,NA,NA,NA,NA,NA,22,FALSE,18,59.8222293219,NA,"American English","VSH_Exp2","2016_Mar_02_1858",NA
"Recordings/baba.wav","yes","b","b","a","yes","a","baba","Training","bilabial","TrainingItems",0,36,36,43,NA,NA,NA,NA,NA,NA,NA,NA,NA,NA,22,FALSE,18,59.8222293219,NA,"American English","VSH_Exp2","2016_Mar_02_1858",NA
"Recordings/tupi.wav","no","t","p","u","yes","i","tupi","Training","alveolar","TrainingItems",0,37,37,34,NA,NA,NA,NA,NA,NA,NA,NA,NA,NA,22,FALSE,18,59.8222293219,NA,"American English","VSH_Exp2","2016_Mar_02_1858",NA
"Recordings/fafi.wav","no","f","f","a","no","i","fafi","Training","bilabial","TrainingItems",0,38,38,71,NA,NA,NA,NA,NA,NA,NA,NA,NA,NA,22,FALSE,18,59.8222293219,NA,"American English","VSH_Exp2","2016_Mar_02_1858",NA
"Recordings/tutu.wav","no","t","t","u","yes","u","tutu","Training","alveolar","TrainingItems",0,39,39,97,NA,NA,NA,NA,NA,NA,NA,NA,NA,NA,22,FALSE,18,59.8222293219,NA,"American English","VSH_Exp2","2016_Mar_02_1858",NA
"Recordings/sasi.wav","no","s","s","a","no","i","sasi","Training","alveolar","TrainingItems",0,40,40,49,NA,NA,NA,NA,NA,NA,NA,NA,NA,NA,22,FALSE,18,59.8222293219,NA,"American English","VSH_Exp2","2016_Mar_02_1858",NA
"Recordings/fufu.wav","no","f","f","u","no","u","fufu","Training","bilabial","TrainingItems",0,41,41,73,NA,NA,NA,NA,NA,NA,NA,NA,NA,NA,22,FALSE,18,59.8222293219,NA,"American English","VSH_Exp2","2016_Mar_02_1858",NA
"Recordings/sasu.wav","no","s","s","a","no","u","sasu","Training","alveolar","TrainingItems",0,42,42,33,NA,NA,NA,NA,NA,NA,NA,NA,NA,NA,22,FALSE,18,59.8222293219,NA,"American English","VSH_Exp2","2016_Mar_02_1858",NA
"Recordings/ziva.wav","yes","z","v","i","no","a","ziva","Training","alveolar","TrainingItems",0,43,43,90,NA,NA,NA,NA,NA,NA,NA,NA,NA,NA,22,FALSE,18,59.8222293219,NA,"American English","VSH_Exp2","2016_Mar_02_1858",NA
"Recordings/zuvu.wav","yes","z","v","u","no","u","zuvu","Training","alveolar","TrainingItems",0,44,44,18,NA,NA,NA,NA,NA,NA,NA,NA,NA,NA,22,FALSE,18,59.8222293219,NA,"American English","VSH_Exp2","2016_Mar_02_1858",NA
"Recordings/bidi.wav","yes","b","d","i","yes","i","bidi","Training","bilabial","TrainingItems",0,45,45,20,NA,NA,NA,NA,NA,NA,NA,NA,NA,NA,22,FALSE,18,59.8222293219,NA,"American English","VSH_Exp2","2016_Mar_02_1858",NA
"Recordings/puta.wav","no","p","t","u","yes","a","puta","Training","bilabial","TrainingItems",0,46,46,30,NA,NA,NA,NA,NA,NA,NA,NA,NA,NA,22,FALSE,18,59.8222293219,NA,"American English","VSH_Exp2","2016_Mar_02_1858",NA
"Recordings/fufi.wav","no","f","f","u","no","i","fufi","Training","bilabial","TrainingItems",0,47,47,27,NA,NA,NA,NA,NA,NA,NA,NA,NA,NA,22,FALSE,18,59.8222293219,NA,"American English","VSH_Exp2","2016_Mar_02_1858",NA
"Recordings/vivu.wav","yes","v","v","i","no","u","vivu","Training","bilabial","TrainingItems",0,48,48,78,NA,NA,NA,NA,NA,NA,NA,NA,NA,NA,22,FALSE,18,59.8222293219,NA,"American English","VSH_Exp2","2016_Mar_02_1858",NA
"Recordings/tapu.wav","no","t","p","a","yes","u","tapu","Training","alveolar","TrainingItems",0,49,49,51,NA,NA,NA,NA,NA,NA,NA,NA,NA,NA,22,FALSE,18,59.8222293219,NA,"American English","VSH_Exp2","2016_Mar_02_1858",NA
"Recordings/vuva.wav","yes","v","v","u","no","a","vuva","Training","bilabial","TrainingItems",0,50,50,85,NA,NA,NA,NA,NA,NA,NA,NA,NA,NA,22,FALSE,18,59.8222293219,NA,"American English","VSH_Exp2","2016_Mar_02_1858",NA
"Recordings/dabi.wav","yes","d","b","a","yes","i","dabi","Training","alveolar","TrainingItems",0,51,51,65,NA,NA,NA,NA,NA,NA,NA,NA,NA,NA,22,FALSE,18,59.8222293219,NA,"American English","VSH_Exp2","2016_Mar_02_1858",NA
"Recordings/daba.wav","yes","d","b","a","yes","a","daba","Training","alveolar","TrainingItems",0,52,52,48,NA,NA,NA,NA,NA,NA,NA,NA,NA,NA,22,FALSE,18,59.8222293219,NA,"American English","VSH_Exp2","2016_Mar_02_1858",NA
"Recordings/papa.wav","no","p","p","a","yes","a","papa","Training","bilabial","TrainingItems",0,53,53,21,NA,NA,NA,NA,NA,NA,NA,NA,NA,NA,22,FALSE,18,59.8222293219,NA,"American English","VSH_Exp2","2016_Mar_02_1858",NA
"Recordings/susu.wav","no","s","s","u","no","u","susu","Training","alveolar","TrainingItems",0,54,54,62,NA,NA,NA,NA,NA,NA,NA,NA,NA,NA,22,FALSE,18,59.8222293219,NA,"American English","VSH_Exp2","2016_Mar_02_1858",NA
"Recordings/zazu.wav","yes","z","z","a","no","u","zazu","Training","alveolar","TrainingItems",0,55,55,40,NA,NA,NA,NA,NA,NA,NA,NA,NA,NA,22,FALSE,18,59.8222293219,NA,"American English","VSH_Exp2","2016_Mar_02_1858",NA
"Recordings/vizu.wav","yes","v","z","i","no","u","vizu","Training","bilabial","TrainingItems",0,56,56,5,NA,NA,NA,NA,NA,NA,NA,NA,NA,NA,22,FALSE,18,59.8222293219,NA,"American English","VSH_Exp2","2016_Mar_02_1858",NA
"Recordings/sasa.wav","no","s","s","a","no","a","sasa","Training","alveolar","TrainingItems",0,57,57,64,NA,NA,NA,NA,NA,NA,NA,NA,NA,NA,22,FALSE,18,59.8222293219,NA,"American English","VSH_Exp2","2016_Mar_02_1858",NA
"Recordings/buda.wav","yes","b","d","u","yes","a","buda","Training","bilabial","TrainingItems",0,58,58,26,NA,NA,NA,NA,NA,NA,NA,NA,NA,NA,22,FALSE,18,59.8222293219,NA,"American English","VSH_Exp2","2016_Mar_02_1858",NA
"Recordings/bubu.wav","yes","b","b","u","yes","u","bubu","Training","bilabial","TrainingItems",0,59,59,92,NA,NA,NA,NA,NA,NA,NA,NA,NA,NA,22,FALSE,18,59.8222293219,NA,"American English","VSH_Exp2","2016_Mar_02_1858",NA
"Recordings/dadu.wav","yes","d","d","a","yes","u","dadu","Training","alveolar","TrainingItems",0,60,60,11,NA,NA,NA,NA,NA,NA,NA,NA,NA,NA,22,FALSE,18,59.8222293219,NA,"American English","VSH_Exp2","2016_Mar_02_1858",NA
"Recordings/viva.wav","yes","v","v","i","no","a","viva","Training","bilabial","TrainingItems",0,61,61,44,NA,NA,NA,NA,NA,NA,NA,NA,NA,NA,22,FALSE,18,59.8222293219,NA,"American English","VSH_Exp2","2016_Mar_02_1858",NA
"Recordings/dadi.wav","yes","d","d","a","yes","i","dadi","Training","alveolar","TrainingItems",0,62,62,0,NA,NA,NA,NA,NA,NA,NA,NA,NA,NA,22,FALSE,18,59.8222293219,NA,"American English","VSH_Exp2","2016_Mar_02_1858",NA
"Recordings/tapa.wav","no","t","p","a","yes","a","tapa","Training","alveolar","TrainingItems",0,63,63,45,NA,NA,NA,NA,NA,NA,NA,NA,NA,NA,22,FALSE,18,59.8222293219,NA,"American English","VSH_Exp2","2016_Mar_02_1858",NA
"Recordings/didi.wav","yes","d","d","i","yes","i","didi","Training","alveolar","TrainingItems",0,64,64,50,NA,NA,NA,NA,NA,NA,NA,NA,NA,NA,22,FALSE,18,59.8222293219,NA,"American English","VSH_Exp2","2016_Mar_02_1858",NA
"Recordings/didu.wav","yes","d","d","i","yes","u","didu","Training","alveolar","TrainingItems",0,65,65,3,NA,NA,NA,NA,NA,NA,NA,NA,NA,NA,22,FALSE,18,59.8222293219,NA,"American English","VSH_Exp2","2016_Mar_02_1858",NA
"Recordings/zuvi.wav","yes","z","v","u","no","i","zuvi","Training","alveolar","TrainingItems",0,66,66,28,NA,NA,NA,NA,NA,NA,NA,NA,NA,NA,22,FALSE,18,59.8222293219,NA,"American English","VSH_Exp2","2016_Mar_02_1858",NA
"Recordings/zavu.wav","yes","z","v","a","no","u","zavu","Training","alveolar","TrainingItems",0,67,67,69,NA,NA,NA,NA,NA,NA,NA,NA,NA,NA,22,FALSE,18,59.8222293219,NA,"American English","VSH_Exp2","2016_Mar_02_1858",NA
"Recordings/biba.wav","yes","b","b","i","yes","a","biba","Training","bilabial","TrainingItems",0,68,68,81,NA,NA,NA,NA,NA,NA,NA,NA,NA,NA,22,FALSE,18,59.8222293219,NA,"American English","VSH_Exp2","2016_Mar_02_1858",NA
"Recordings/budu.wav","yes","b","d","u","yes","u","budu","Training","bilabial","TrainingItems",0,69,69,38,NA,NA,NA,NA,NA,NA,NA,NA,NA,NA,22,FALSE,18,59.8222293219,NA,"American English","VSH_Exp2","2016_Mar_02_1858",NA
"Recordings/pipi.wav","no","p","p","i","yes","i","pipi","Training","bilabial","TrainingItems",0,70,70,7,NA,NA,NA,NA,NA,NA,NA,NA,NA,NA,22,FALSE,18,59.8222293219,NA,"American English","VSH_Exp2","2016_Mar_02_1858",NA
"Recordings/bibu.wav","yes","b","b","i","yes","u","bibu","Training","bilabial","TrainingItems",0,71,71,56,NA,NA,NA,NA,NA,NA,NA,NA,NA,NA,22,FALSE,18,59.8222293219,NA,"American English","VSH_Exp2","2016_Mar_02_1858",NA
"Recordings/dibu.wav","yes","d","b","i","yes","u","dibu","Training","alveolar","TrainingItems",0,72,72,61,NA,NA,NA,NA,NA,NA,NA,NA,NA,NA,22,FALSE,18,59.8222293219,NA,"American English","VSH_Exp2","2016_Mar_02_1858",NA
"Recordings/piti.wav","no","p","t","i","yes","i","piti","Training","bilabial","TrainingItems",0,73,73,80,NA,NA,NA,NA,NA,NA,NA,NA,NA,NA,22,FALSE,18,59.8222293219,NA,"American English","VSH_Exp2","2016_Mar_02_1858",NA
"Recordings/tatu.wav","no","t","t","a","yes","u","tatu","Training","alveolar","TrainingItems",0,74,74,95,NA,NA,NA,NA,NA,NA,NA,NA,NA,NA,22,FALSE,18,59.8222293219,NA,"American English","VSH_Exp2","2016_Mar_02_1858",NA
"Recordings/vuvi.wav","yes","v","v","u","no","i","vuvi","Training","bilabial","TrainingItems",0,75,75,12,NA,NA,NA,NA,NA,NA,NA,NA,NA,NA,22,FALSE,18,59.8222293219,NA,"American English","VSH_Exp2","2016_Mar_02_1858",NA
"Recordings/sisi.wav","no","s","s","i","no","i","sisi","Training","alveolar","TrainingItems",0,76,76,67,NA,NA,NA,NA,NA,NA,NA,NA,NA,NA,22,FALSE,18,59.8222293219,NA,"American English","VSH_Exp2","2016_Mar_02_1858",NA
"Recordings/putu.wav","no","p","t","u","yes","u","putu","Training","bilabial","TrainingItems",0,77,77,66,NA,NA,NA,NA,NA,NA,NA,NA,NA,NA,22,FALSE,18,59.8222293219,NA,"American English","VSH_Exp2","2016_Mar_02_1858",NA
"Recordings/fifu.wav","no","f","f","i","no","u","fifu","Training","bilabial","TrainingItems",0,78,78,31,NA,NA,NA,NA,NA,NA,NA,NA,NA,NA,22,FALSE,18,59.8222293219,NA,"American English","VSH_Exp2","2016_Mar_02_1858",NA
"Recordings/zuzi.wav","yes","z","z","u","no","i","zuzi","Training","alveolar","TrainingItems",0,79,79,22,NA,NA,NA,NA,NA,NA,NA,NA,NA,NA,22,FALSE,18,59.8222293219,NA,"American English","VSH_Exp2","2016_Mar_02_1858",NA
"Recordings/papi.wav","no","p","p","a","yes","i","papi","Training","bilabial","TrainingItems",0,80,80,63,NA,NA,NA,NA,NA,NA,NA,NA,NA,NA,22,FALSE,18,59.8222293219,NA,"American English","VSH_Exp2","2016_Mar_02_1858",NA
"Recordings/diba.wav","yes","d","b","i","yes","a","diba","Training","alveolar","TrainingItems",0,81,81,16,NA,NA,NA,NA,NA,NA,NA,NA,NA,NA,22,FALSE,18,59.8222293219,NA,"American English","VSH_Exp2","2016_Mar_02_1858",NA
"Recordings/budi.wav","yes","b","d","u","yes","i","budi","Training","bilabial","TrainingItems",0,82,82,70,NA,NA,NA,NA,NA,NA,NA,NA,NA,NA,22,FALSE,18,59.8222293219,NA,"American English","VSH_Exp2","2016_Mar_02_1858",NA
"Recordings/puti.wav","no","p","t","u","yes","i","puti","Training","bilabial","TrainingItems",0,83,83,79,NA,NA,NA,NA,NA,NA,NA,NA,NA,NA,22,FALSE,18,59.8222293219,NA,"American English","VSH_Exp2","2016_Mar_02_1858",NA
"Recordings/tapi.wav","no","t","p","a","yes","i","tapi","Training","alveolar","TrainingItems",0,84,84,13,NA,NA,NA,NA,NA,NA,NA,NA,NA,NA,22,FALSE,18,59.8222293219,NA,"American English","VSH_Exp2","2016_Mar_02_1858",NA
"Recordings/fifi.wav","no","f","f","i","no","i","fifi","Training","bilabial","TrainingItems",0,85,85,1,NA,NA,NA,NA,NA,NA,NA,NA,NA,NA,22,FALSE,18,59.8222293219,NA,"American English","VSH_Exp2","2016_Mar_02_1858",NA
"Recordings/vava.wav","yes","v","v","a","no","a","vava","Training","bilabial","TrainingItems",0,86,86,2,NA,NA,NA,NA,NA,NA,NA,NA,NA,NA,22,FALSE,18,59.8222293219,NA,"American English","VSH_Exp2","2016_Mar_02_1858",NA
"Recordings/badu.wav","yes","b","d","a","yes","u","badu","Training","bilabial","TrainingItems",0,87,87,19,NA,NA,NA,NA,NA,NA,NA,NA,NA,NA,22,FALSE,18,59.8222293219,NA,"American English","VSH_Exp2","2016_Mar_02_1858",NA
"Recordings/patu.wav","no","p","t","a","yes","u","patu","Training","bilabial","TrainingItems",0,88,88,41,NA,NA,NA,NA,NA,NA,NA,NA,NA,NA,22,FALSE,18,59.8222293219,NA,"American English","VSH_Exp2","2016_Mar_02_1858",NA
"Recordings/bada.wav","yes","b","d","a","yes","a","bada","Training","bilabial","TrainingItems",0,89,89,25,NA,NA,NA,NA,NA,NA,NA,NA,NA,NA,22,FALSE,18,59.8222293219,NA,"American English","VSH_Exp2","2016_Mar_02_1858",NA
"Recordings/vivi.wav","yes","v","v","i","no","i","vivi","Training","bilabial","TrainingItems",0,90,90,23,NA,NA,NA,NA,NA,NA,NA,NA,NA,NA,22,FALSE,18,59.8222293219,NA,"American English","VSH_Exp2","2016_Mar_02_1858",NA
"Recordings/bubi.wav","yes","b","b","u","yes","i","bubi","Training","bilabial","TrainingItems",0,91,91,98,NA,NA,NA,NA,NA,NA,NA,NA,NA,NA,22,FALSE,18,59.8222293219,NA,"American English","VSH_Exp2","2016_Mar_02_1858",NA
"Recordings/sisu.wav","no","s","s","i","no","u","sisu","Training","alveolar","TrainingItems",0,92,92,91,NA,NA,NA,NA,NA,NA,NA,NA,NA,NA,22,FALSE,18,59.8222293219,NA,"American English","VSH_Exp2","2016_Mar_02_1858",NA
"Recordings/zuzu.wav","yes","z","z","u","no","u","zuzu","Training","alveolar","TrainingItems",0,93,93,10,NA,NA,NA,NA,NA,NA,NA,NA,NA,NA,22,FALSE,18,59.8222293219,NA,"American English","VSH_Exp2","2016_Mar_02_1858",NA
"Recordings/tita.wav","no","t","t","i","yes","a","tita","Training","alveolar","TrainingItems",0,94,94,52,NA,NA,NA,NA,NA,NA,NA,NA,NA,NA,22,FALSE,18,59.8222293219,NA,"American English","VSH_Exp2","2016_Mar_02_1858",NA
"Recordings/titu.wav","no","t","t","i","yes","u","titu","Training","alveolar","TrainingItems",0,95,95,76,NA,NA,NA,NA,NA,NA,NA,NA,NA,NA,22,FALSE,18,59.8222293219,NA,"American English","VSH_Exp2","2016_Mar_02_1858",NA
"Recordings/zivi.wav","yes","z","v","i","no","i","zivi","Training","alveolar","TrainingItems",0,96,96,53,NA,NA,NA,NA,NA,NA,NA,NA,NA,NA,22,FALSE,18,59.8222293219,NA,"American English","VSH_Exp2","2016_Mar_02_1858",NA
"Recordings/zavi.wav","yes","z","v","a","no","i","zavi","Training","alveolar","TrainingItems",0,97,97,15,NA,NA,NA,NA,NA,NA,NA,NA,NA,NA,22,FALSE,18,59.8222293219,NA,"American English","VSH_Exp2","2016_Mar_02_1858",NA
"Recordings/dabu.wav","yes","d","b","a","yes","u","dabu","Training","alveolar","TrainingItems",0,98,98,17,NA,NA,NA,NA,NA,NA,NA,NA,NA,NA,22,FALSE,18,59.8222293219,NA,"American English","VSH_Exp2","2016_Mar_02_1858",NA
"Recordings/tuti.wav","no","t","t","u","yes","i","tuti","Training","alveolar","TrainingItems",0,99,99,54,NA,NA,NA,NA,NA,NA,NA,NA,NA,NA,22,FALSE,18,59.8222293219,NA,"American English","VSH_Exp2","2016_Mar_02_1858",NA
"Recordings/putu.wav","no","p","t","u","yes","u","putu","Training","bilabial","TrainingItems",1,0,100,66,NA,NA,NA,NA,NA,NA,NA,NA,NA,NA,22,FALSE,18,59.8222293219,NA,"American English","VSH_Exp2","2016_Mar_02_1858",NA
"Recordings/vava.wav","yes","v","v","a","no","a","vava","Training","bilabial","TrainingItems",1,1,101,2,NA,NA,NA,NA,NA,NA,NA,NA,NA,NA,22,FALSE,18,59.8222293219,NA,"American English","VSH_Exp2","2016_Mar_02_1858",NA
"Recordings/duda.wav","yes","d","d","u","yes","a","duda","Training","alveolar","TrainingItems",1,2,102,8,NA,NA,NA,NA,NA,NA,NA,NA,NA,NA,22,FALSE,18,59.8222293219,NA,"American English","VSH_Exp2","2016_Mar_02_1858",NA
"Recordings/vazu.wav","yes","v","z","a","no","u","vazu","Training","bilabial","TrainingItems",1,3,103,84,NA,NA,NA,NA,NA,NA,NA,NA,NA,NA,22,FALSE,18,59.8222293219,NA,"American English","VSH_Exp2","2016_Mar_02_1858",NA
"Recordings/dadu.wav","yes","d","d","a","yes","u","dadu","Training","alveolar","TrainingItems",1,4,104,11,NA,NA,NA,NA,NA,NA,NA,NA,NA,NA,22,FALSE,18,59.8222293219,NA,"American English","VSH_Exp2","2016_Mar_02_1858",NA
"Recordings/vavu.wav","yes","v","v","a","no","u","vavu","Training","bilabial","TrainingItems",1,5,105,96,NA,NA,NA,NA,NA,NA,NA,NA,NA,NA,22,FALSE,18,59.8222293219,NA,"American English","VSH_Exp2","2016_Mar_02_1858",NA
"Recordings/pupa.wav","no","p","p","u","yes","a","pupa","Training","bilabial","TrainingItems",1,6,106,36,NA,NA,NA,NA,NA,NA,NA,NA,NA,NA,22,FALSE,18,59.8222293219,NA,"American English","VSH_Exp2","2016_Mar_02_1858",NA
"Recordings/didu.wav","yes","d","d","i","yes","u","didu","Training","alveolar","TrainingItems",1,7,107,3,NA,NA,NA,NA,NA,NA,NA,NA,NA,NA,22,FALSE,18,59.8222293219,NA,"American English","VSH_Exp2","2016_Mar_02_1858",NA
"Recordings/babu.wav","yes","b","b","a","yes","u","babu","Training","bilabial","TrainingItems",1,8,108,24,NA,NA,NA,NA,NA,NA,NA,NA,NA,NA,22,FALSE,18,59.8222293219,NA,"American English","VSH_Exp2","2016_Mar_02_1858",NA
"Recordings/piti.wav","no","p","t","i","yes","i","piti","Training","bilabial","TrainingItems",1,9,109,80,NA,NA,NA,NA,NA,NA,NA,NA,NA,NA,22,FALSE,18,59.8222293219,NA,"American English","VSH_Exp2","2016_Mar_02_1858",NA
"Recordings/vuva.wav","yes","v","v","u","no","a","vuva","Training","bilabial","TrainingItems",1,10,110,85,NA,NA,NA,NA,NA,NA,NA,NA,NA,NA,22,FALSE,18,59.8222293219,NA,"American English","VSH_Exp2","2016_Mar_02_1858",NA
"Recordings/dida.wav","yes","d","d","i","yes","a","dida","Training","alveolar","TrainingItems",1,11,111,86,NA,NA,NA,NA,NA,NA,NA,NA,NA,NA,22,FALSE,18,59.8222293219,NA,"American English","VSH_Exp2","2016_Mar_02_1858",NA
"Recordings/bibi.wav","yes","b","b","i","yes","i","bibi","Training","bilabial","TrainingItems",1,12,112,9,NA,NA,NA,NA,NA,NA,NA,NA,NA,NA,22,FALSE,18,59.8222293219,NA,"American English","VSH_Exp2","2016_Mar_02_1858",NA
"Recordings/dubi.wav","yes","d","b","u","yes","i","dubi","Training","alveolar","TrainingItems",1,13,113,82,NA,NA,NA,NA,NA,NA,NA,NA,NA,NA,22,FALSE,18,59.8222293219,NA,"American English","VSH_Exp2","2016_Mar_02_1858",NA
"Recordings/tipa.wav","no","t","p","i","yes","a","tipa","Training","alveolar","TrainingItems",1,14,114,99,NA,NA,NA,NA,NA,NA,NA,NA,NA,NA,22,FALSE,18,59.8222293219,NA,"American English","VSH_Exp2","2016_Mar_02_1858",NA
"Recordings/fufu.wav","no","f","f","u","no","u","fufu","Training","bilabial","TrainingItems",1,15,115,73,NA,NA,NA,NA,NA,NA,NA,NA,NA,NA,22,FALSE,18,59.8222293219,NA,"American English","VSH_Exp2","2016_Mar_02_1858",NA
"Recordings/pipa.wav","no","p","p","i","yes","a","pipa","Training","bilabial","TrainingItems",1,16,116,29,NA,NA,NA,NA,NA,NA,NA,NA,NA,NA,22,FALSE,18,59.8222293219,NA,"American English","VSH_Exp2","2016_Mar_02_1858",NA
"Recordings/titi.wav","no","t","t","i","yes","i","titi","Training","alveolar","TrainingItems",1,17,117,46,NA,NA,NA,NA,NA,NA,NA,NA,NA,NA,22,FALSE,18,59.8222293219,NA,"American English","VSH_Exp2","2016_Mar_02_1858",NA
"Recordings/ziva.wav","yes","z","v","i","no","a","ziva","Training","alveolar","TrainingItems",1,18,118,90,NA,NA,NA,NA,NA,NA,NA,NA,NA,NA,22,FALSE,18,59.8222293219,NA,"American English","VSH_Exp2","2016_Mar_02_1858",NA
"Recordings/bubu.wav","yes","b","b","u","yes","u","bubu","Training","bilabial","TrainingItems",1,19,119,92,NA,NA,NA,NA,NA,NA,NA,NA,NA,NA,22,FALSE,18,59.8222293219,NA,"American English","VSH_Exp2","2016_Mar_02_1858",NA
"Recordings/titu.wav","no","t","t","i","yes","u","titu","Training","alveolar","TrainingItems",1,20,120,76,NA,NA,NA,NA,NA,NA,NA,NA,NA,NA,22,FALSE,18,59.8222293219,NA,"American English","VSH_Exp2","2016_Mar_02_1858",NA
"Recordings/papa.wav","no","p","p","a","yes","a","papa","Training","bilabial","TrainingItems",1,21,121,21,NA,NA,NA,NA,NA,NA,NA,NA,NA,NA,22,FALSE,18,59.8222293219,NA,"American English","VSH_Exp2","2016_Mar_02_1858",NA
"Recordings/tupa.wav","no","t","p","u","yes","a","tupa","Training","alveolar","TrainingItems",1,22,122,14,NA,NA,NA,NA,NA,NA,NA,NA,NA,NA,22,FALSE,18,59.8222293219,NA,"American English","VSH_Exp2","2016_Mar_02_1858",NA
"Recordings/sasi.wav","no","s","s","a","no","i","sasi","Training","alveolar","TrainingItems",1,23,123,49,NA,NA,NA,NA,NA,NA,NA,NA,NA,NA,22,FALSE,18,59.8222293219,NA,"American English","VSH_Exp2","2016_Mar_02_1858",NA
"Recordings/zizi.wav","yes","z","z","i","no","i","zizi","Training","alveolar","TrainingItems",1,24,124,39,NA,NA,NA,NA,NA,NA,NA,NA,NA,NA,22,FALSE,18,59.8222293219,NA,"American English","VSH_Exp2","2016_Mar_02_1858",NA
"Recordings/fifu.wav","no","f","f","i","no","u","fifu","Training","bilabial","TrainingItems",1,25,125,31,NA,NA,NA,NA,NA,NA,NA,NA,NA,NA,22,FALSE,18,59.8222293219,NA,"American English","VSH_Exp2","2016_Mar_02_1858",NA
"Recordings/papi.wav","no","p","p","a","yes","i","papi","Training","bilabial","TrainingItems",1,26,126,63,NA,NA,NA,NA,NA,NA,NA,NA,NA,NA,22,FALSE,18,59.8222293219,NA,"American English","VSH_Exp2","2016_Mar_02_1858",NA
"Recordings/zivi.wav","yes","z","v","i","no","i","zivi","Training","alveolar","TrainingItems",1,27,127,53,NA,NA,NA,NA,NA,NA,NA,NA,NA,NA,22,FALSE,18,59.8222293219,NA,"American English","VSH_Exp2","2016_Mar_02_1858",NA
"Recordings/badu.wav","yes","b","d","a","yes","u","badu","Training","bilabial","TrainingItems",1,28,128,19,NA,NA,NA,NA,NA,NA,NA,NA,NA,NA,22,FALSE,18,59.8222293219,NA,"American English","VSH_Exp2","2016_Mar_02_1858",NA
"Recordings/tatu.wav","no","t","t","a","yes","u","tatu","Training","alveolar","TrainingItems",1,29,129,95,NA,NA,NA,NA,NA,NA,NA,NA,NA,NA,22,FALSE,18,59.8222293219,NA,"American English","VSH_Exp2","2016_Mar_02_1858",NA
"Recordings/budu.wav","yes","b","d","u","yes","u","budu","Training","bilabial","TrainingItems",1,30,130,38,NA,NA,NA,NA,NA,NA,NA,NA,NA,NA,22,FALSE,18,59.8222293219,NA,"American English","VSH_Exp2","2016_Mar_02_1858",NA
"Recordings/pupi.wav","no","p","p","u","yes","i","pupi","Training","bilabial","TrainingItems",1,31,131,55,NA,NA,NA,NA,NA,NA,NA,NA,NA,NA,22,FALSE,18,59.8222293219,NA,"American English","VSH_Exp2","2016_Mar_02_1858",NA
"Recordings/tapi.wav","no","t","p","a","yes","i","tapi","Training","alveolar","TrainingItems",1,32,132,13,NA,NA,NA,NA,NA,NA,NA,NA,NA,NA,22,FALSE,18,59.8222293219,NA,"American English","VSH_Exp2","2016_Mar_02_1858",NA
"Recordings/buda.wav","yes","b","d","u","yes","a","buda","Training","bilabial","TrainingItems",1,33,133,26,NA,NA,NA,NA,NA,NA,NA,NA,NA,NA,22,FALSE,18,59.8222293219,NA,"American English","VSH_Exp2","2016_Mar_02_1858",NA
"Recordings/bada.wav","yes","b","d","a","yes","a","bada","Training","bilabial","TrainingItems",1,34,134,25,NA,NA,NA,NA,NA,NA,NA,NA,NA,NA,22,FALSE,18,59.8222293219,NA,"American English","VSH_Exp2","2016_Mar_02_1858",NA
"Recordings/zazu.wav","yes","z","z","a","no","u","zazu","Training","alveolar","TrainingItems",1,35,135,40,NA,NA,NA,NA,NA,NA,NA,NA,NA,NA,22,FALSE,18,59.8222293219,NA,"American English","VSH_Exp2","2016_Mar_02_1858",NA
"Recordings/vavi.wav","yes","v","v","a","no","i","vavi","Training","bilabial","TrainingItems",1,36,136,77,NA,NA,NA,NA,NA,NA,NA,NA,NA,NA,22,FALSE,18,59.8222293219,NA,"American English","VSH_Exp2","2016_Mar_02_1858",NA
"Recordings/puti.wav","no","p","t","u","yes","i","puti","Training","bilabial","TrainingItems",1,37,137,79,NA,NA,NA,NA,NA,NA,NA,NA,NA,NA,22,FALSE,18,59.8222293219,NA,"American English","VSH_Exp2","2016_Mar_02_1858",NA
"Recordings/bidi.wav","yes","b","d","i","yes","i","bidi","Training","bilabial","TrainingItems",1,38,138,20,NA,NA,NA,NA,NA,NA,NA,NA,NA,NA,22,FALSE,18,59.8222293219,NA,"American English","VSH_Exp2","2016_Mar_02_1858",NA
"Recordings/vivi.wav","yes","v","v","i","no","i","vivi","Training","bilabial","TrainingItems",1,39,139,23,NA,NA,NA,NA,NA,NA,NA,NA,NA,NA,22,FALSE,18,59.8222293219,NA,"American English","VSH_Exp2","2016_Mar_02_1858",NA
"Recordings/vizu.wav","yes","v","z","i","no","u","vizu","Training","bilabial","TrainingItems",1,40,140,5,NA,NA,NA,NA,NA,NA,NA,NA,NA,NA,22,FALSE,18,59.8222293219,NA,"American English","VSH_Exp2","2016_Mar_02_1858",NA
"Recordings/sasa.wav","no","s","s","a","no","a","sasa","Training","alveolar","TrainingItems",1,41,141,64,NA,NA,NA,NA,NA,NA,NA,NA,NA,NA,22,FALSE,18,59.8222293219,NA,"American English","VSH_Exp2","2016_Mar_02_1858",NA
"Recordings/duba.wav","yes","d","b","u","yes","a","duba","Training","alveolar","TrainingItems",1,42,142,4,NA,NA,NA,NA,NA,NA,NA,NA,NA,NA,22,FALSE,18,59.8222293219,NA,"American English","VSH_Exp2","2016_Mar_02_1858",NA
"Recordings/ziza.wav","yes","z","z","i","no","a","ziza","Training","alveolar","TrainingItems",1,43,143,94,NA,NA,NA,NA,NA,NA,NA,NA,NA,NA,22,FALSE,18,59.8222293219,NA,"American English","VSH_Exp2","2016_Mar_02_1858",NA
"Recordings/diba.wav","yes","d","b","i","yes","a","diba","Training","alveolar","TrainingItems",1,44,144,16,NA,NA,NA,NA,NA,NA,NA,NA,NA,NA,22,FALSE,18,59.8222293219,NA,"American English","VSH_Exp2","2016_Mar_02_1858",NA
"Recordings/zuzu.wav","yes","z","z","u","no","u","zuzu","Training","alveolar","TrainingItems",1,45,145,10,NA,NA,NA,NA,NA,NA,NA,NA,NA,NA,22,FALSE,18,59.8222293219,NA,"American English","VSH_Exp2","2016_Mar_02_1858",NA
"Recordings/sisu.wav","no","s","s","i","no","u","sisu","Training","alveolar","TrainingItems",1,46,146,91,NA,NA,NA,NA,NA,NA,NA,NA,NA,NA,22,FALSE,18,59.8222293219,NA,"American English","VSH_Exp2","2016_Mar_02_1858",NA
"Recordings/vuza.wav","yes","v","z","u","no","a","vuza","Training","bilabial","TrainingItems",1,47,147,57,NA,NA,NA,NA,NA,NA,NA,NA,NA,NA,22,FALSE,18,59.8222293219,NA,"American English","VSH_Exp2","2016_Mar_02_1858",NA
"Recordings/zuzi.wav","yes","z","z","u","no","i","zuzi","Training","alveolar","TrainingItems",1,48,148,22,NA,NA,NA,NA,NA,NA,NA,NA,NA,NA,22,FALSE,18,59.8222293219,NA,"American English","VSH_Exp2","2016_Mar_02_1858",NA
"Recordings/puta.wav","no","p","t","u","yes","a","puta","Training","bilabial","TrainingItems",1,49,149,30,NA,NA,NA,NA,NA,NA,NA,NA,NA,NA,22,FALSE,18,59.8222293219,NA,"American English","VSH_Exp2","2016_Mar_02_1858",NA
"Recordings/fifi.wav","no","f","f","i","no","i","fifi","Training","bilabial","TrainingItems",1,50,150,1,NA,NA,NA,NA,NA,NA,NA,NA,NA,NA,22,FALSE,18,59.8222293219,NA,"American English","VSH_Exp2","2016_Mar_02_1858",NA
"Recordings/tuti.wav","no","t","t","u","yes","i","tuti","Training","alveolar","TrainingItems",1,51,151,54,NA,NA,NA,NA,NA,NA,NA,NA,NA,NA,22,FALSE,18,59.8222293219,NA,"American English","VSH_Exp2","2016_Mar_02_1858",NA
"Recordings/tita.wav","no","t","t","i","yes","a","tita","Training","alveolar","TrainingItems",1,52,152,52,NA,NA,NA,NA,NA,NA,NA,NA,NA,NA,22,FALSE,18,59.8222293219,NA,"American English","VSH_Exp2","2016_Mar_02_1858",NA
"Recordings/dibu.wav","yes","d","b","i","yes","u","dibu","Training","alveolar","TrainingItems",1,53,153,61,NA,NA,NA,NA,NA,NA,NA,NA,NA,NA,22,FALSE,18,59.8222293219,NA,"American English","VSH_Exp2","2016_Mar_02_1858",NA
"Recordings/dada.wav","yes","d","d","a","yes","a","dada","Training","alveolar","TrainingItems",1,54,154,93,NA,NA,NA,NA,NA,NA,NA,NA,NA,NA,22,FALSE,18,59.8222293219,NA,"American English","VSH_Exp2","2016_Mar_02_1858",NA
"Recordings/susi.wav","no","s","s","u","no","i","susi","Training","alveolar","TrainingItems",1,55,155,87,NA,NA,NA,NA,NA,NA,NA,NA,NA,NA,22,FALSE,18,59.8222293219,NA,"American English","VSH_Exp2","2016_Mar_02_1858",NA
"Recordings/biba.wav","yes","b","b","i","yes","a","biba","Training","bilabial","TrainingItems",1,56,156,81,NA,NA,NA,NA,NA,NA,NA,NA,NA,NA,22,FALSE,18,59.8222293219,NA,"American English","VSH_Exp2","2016_Mar_02_1858",NA
"Recordings/daba.wav","yes","d","b","a","yes","a","daba","Training","alveolar","TrainingItems",1,57,157,48,NA,NA,NA,NA,NA,NA,NA,NA,NA,NA,22,FALSE,18,59.8222293219,NA,"American English","VSH_Exp2","2016_Mar_02_1858",NA
"Recordings/tapu.wav","no","t","p","a","yes","u","tapu","Training","alveolar","TrainingItems",1,58,158,51,NA,NA,NA,NA,NA,NA,NA,NA,NA,NA,22,FALSE,18,59.8222293219,NA,"American English","VSH_Exp2","2016_Mar_02_1858",NA
"Recordings/zaza.wav","yes","z","z","a","no","a","zaza","Training","alveolar","TrainingItems",1,59,159,88,NA,NA,NA,NA,NA,NA,NA,NA,NA,NA,22,FALSE,18,59.8222293219,NA,"American English","VSH_Exp2","2016_Mar_02_1858",NA
"Recordings/tapa.wav","no","t","p","a","yes","a","tapa","Training","alveolar","TrainingItems",1,60,160,45,NA,NA,NA,NA,NA,NA,NA,NA,NA,NA,22,FALSE,18,59.8222293219,NA,"American English","VSH_Exp2","2016_Mar_02_1858",NA
"Recordings/baba.wav","yes","b","b","a","yes","a","baba","Training","bilabial","TrainingItems",1,61,161,43,NA,NA,NA,NA,NA,NA,NA,NA,NA,NA,22,FALSE,18,59.8222293219,NA,"American English","VSH_Exp2","2016_Mar_02_1858",NA
"Recordings/tati.wav","no","t","t","a","yes","i","tati","Training","alveolar","TrainingItems",1,62,162,83,NA,NA,NA,NA,NA,NA,NA,NA,NA,NA,22,FALSE,18,59.8222293219,NA,"American English","VSH_Exp2","2016_Mar_02_1858",NA
"Recordings/dabu.wav","yes","d","b","a","yes","u","dabu","Training","alveolar","TrainingItems",1,63,163,17,NA,NA,NA,NA,NA,NA,NA,NA,NA,NA,22,FALSE,18,59.8222293219,NA,"American English","VSH_Exp2","2016_Mar_02_1858",NA
"Recordings/zava.wav","yes","z","v","a","no","a","zava","Training","alveolar","TrainingItems",1,64,164,47,NA,NA,NA,NA,NA,NA,NA,NA,NA,NA,22,FALSE,18,59.8222293219,NA,"American English","VSH_Exp2","2016_Mar_02_1858",NA
"Recordings/zazi.wav","yes","z","z","a","no","i","zazi","Training","alveolar","TrainingItems",1,65,165,60,NA,NA,NA,NA,NA,NA,NA,NA,NA,NA,22,FALSE,18,59.8222293219,NA,"American English","VSH_Exp2","2016_Mar_02_1858",NA
"Recordings/fafa.wav","no","f","f","a","no","a","fafa","Training","bilabial","TrainingItems",1,66,166,68,NA,NA,NA,NA,NA,NA,NA,NA,NA,NA,22,FALSE,18,59.8222293219,NA,"American English","VSH_Exp2","2016_Mar_02_1858",NA
"Recordings/tipi.wav","no","t","p","i","yes","i","tipi","Training","alveolar","TrainingItems",1,67,167,75,NA,NA,NA,NA,NA,NA,NA,NA,NA,NA,22,FALSE,18,59.8222293219,NA,"American English","VSH_Exp2","2016_Mar_02_1858",NA
"Recordings/sisi.wav","no","s","s","i","no","i","sisi","Training","alveolar","TrainingItems",1,68,168,67,NA,NA,NA,NA,NA,NA,NA,NA,NA,NA,22,FALSE,18,59.8222293219,NA,"American English","VSH_Exp2","2016_Mar_02_1858",NA
"Recordings/tupi.wav","no","t","p","u","yes","i","tupi","Training","alveolar","TrainingItems",1,69,169,34,NA,NA,NA,NA,NA,NA,NA,NA,NA,NA,22,FALSE,18,59.8222293219,NA,"American English","VSH_Exp2","2016_Mar_02_1858",NA
"Recordings/dadi.wav","yes","d","d","a","yes","i","dadi","Training","alveolar","TrainingItems",1,70,170,0,NA,NA,NA,NA,NA,NA,NA,NA,NA,NA,22,FALSE,18,59.8222293219,NA,"American English","VSH_Exp2","2016_Mar_02_1858",NA
"Recordings/bibu.wav","yes","b","b","i","yes","u","bibu","Training","bilabial","TrainingItems",1,71,171,56,NA,NA,NA,NA,NA,NA,NA,NA,NA,NA,22,FALSE,18,59.8222293219,NA,"American English","VSH_Exp2","2016_Mar_02_1858",NA
"Recordings/zavu.wav","yes","z","v","a","no","u","zavu","Training","alveolar","TrainingItems",1,72,172,69,NA,NA,NA,NA,NA,NA,NA,NA,NA,NA,22,FALSE,18,59.8222293219,NA,"American English","VSH_Exp2","2016_Mar_02_1858",NA
"Recordings/pipi.wav","no","p","p","i","yes","i","pipi","Training","bilabial","TrainingItems",1,73,173,7,NA,NA,NA,NA,NA,NA,NA,NA,NA,NA,22,FALSE,18,59.8222293219,NA,"American English","VSH_Exp2","2016_Mar_02_1858",NA
"Recordings/fufa.wav","no","f","f","u","no","a","fufa","Training","bilabial","TrainingItems",1,74,174,72,NA,NA,NA,NA,NA,NA,NA,NA,NA,NA,22,FALSE,18,59.8222293219,NA,"American English","VSH_Exp2","2016_Mar_02_1858",NA
"Recordings/didi.wav","yes","d","d","i","yes","i","didi","Training","alveolar","TrainingItems",1,75,175,50,NA,NA,NA,NA,NA,NA,NA,NA,NA,NA,22,FALSE,18,59.8222293219,NA,"American English","VSH_Exp2","2016_Mar_02_1858",NA
"Recordings/zivu.wav","yes","z","v","i","no","u","zivu","Training","alveolar","TrainingItems",1,76,176,42,NA,NA,NA,NA,NA,NA,NA,NA,NA,NA,22,FALSE,18,59.8222293219,NA,"American English","VSH_Exp2","2016_Mar_02_1858",NA
"Recordings/vuzu.wav","yes","v","z","u","no","u","vuzu","Training","bilabial","TrainingItems",1,77,177,37,NA,NA,NA,NA,NA,NA,NA,NA,NA,NA,22,FALSE,18,59.8222293219,NA,"American English","VSH_Exp2","2016_Mar_02_1858",NA
"Recordings/zuvi.wav","yes","z","v","u","no","i","zuvi","Training","alveolar","TrainingItems",1,78,178,28,NA,NA,NA,NA,NA,NA,NA,NA,NA,NA,22,FALSE,18,59.8222293219,NA,"American English","VSH_Exp2","2016_Mar_02_1858",NA
"Recordings/zuva.wav","yes","z","v","u","no","a","zuva","Training","alveolar","TrainingItems",1,79,179,89,NA,NA,NA,NA,NA,NA,NA,NA,NA,NA,22,FALSE,18,59.8222293219,NA,"American English","VSH_Exp2","2016_Mar_02_1858",NA
"Recordings/tutu.wav","no","t","t","u","yes","u","tutu","Training","alveolar","TrainingItems",1,80,180,97,NA,NA,NA,NA,NA,NA,NA,NA,NA,NA,22,FALSE,18,59.8222293219,NA,"American English","VSH_Exp2","2016_Mar_02_1858",NA
"Recordings/viza.wav","yes","v","z","i","no","a","viza","Training","bilabial","TrainingItems",1,81,181,6,NA,NA,NA,NA,NA,NA,NA,NA,NA,NA,22,FALSE,18,59.8222293219,NA,"American English","VSH_Exp2","2016_Mar_02_1858",NA
"Recordings/sisa.wav","no","s","s","i","no","a","sisa","Training","alveolar","TrainingItems",1,82,182,35,NA,NA,NA,NA,NA,NA,NA,NA,NA,NA,22,FALSE,18,59.8222293219,NA,"American English","VSH_Exp2","2016_Mar_02_1858",NA
"Recordings/patu.wav","no","p","t","a","yes","u","patu","Training","bilabial","TrainingItems",1,83,183,41,NA,NA,NA,NA,NA,NA,NA,NA,NA,NA,22,FALSE,18,59.8222293219,NA,"American English","VSH_Exp2","2016_Mar_02_1858",NA
"Recordings/zuvu.wav","yes","z","v","u","no","u","zuvu","Training","alveolar","TrainingItems",1,84,184,18,NA,NA,NA,NA,NA,NA,NA,NA,NA,NA,22,FALSE,18,59.8222293219,NA,"American English","VSH_Exp2","2016_Mar_02_1858",NA
"Recordings/vuvi.wav","yes","v","v","u","no","i","vuvi","Training","bilabial","TrainingItems",1,85,185,12,NA,NA,NA,NA,NA,NA,NA,NA,NA,NA,22,FALSE,18,59.8222293219,NA,"American English","VSH_Exp2","2016_Mar_02_1858",NA
"Recordings/dudu.wav","yes","d","d","u","yes","u","dudu","Training","alveolar","TrainingItems",1,86,186,32,NA,NA,NA,NA,NA,NA,NA,NA,NA,NA,22,FALSE,18,59.8222293219,NA,"American English","VSH_Exp2","2016_Mar_02_1858",NA
"Recordings/fafi.wav","no","f","f","a","no","i","fafi","Training","bilabial","TrainingItems",1,87,187,71,NA,NA,NA,NA,NA,NA,NA,NA,NA,NA,22,FALSE,18,59.8222293219,NA,"American English","VSH_Exp2","2016_Mar_02_1858",NA
"Recordings/bubi.wav","yes","b","b","u","yes","i","bubi","Training","bilabial","TrainingItems",1,88,188,98,NA,NA,NA,NA,NA,NA,NA,NA,NA,NA,22,FALSE,18,59.8222293219,NA,"American English","VSH_Exp2","2016_Mar_02_1858",NA
"Recordings/vuzi.wav","yes","v","z","u","no","i","vuzi","Training","bilabial","TrainingItems",1,89,189,59,NA,NA,NA,NA,NA,NA,NA,NA,NA,NA,22,FALSE,18,59.8222293219,NA,"American English","VSH_Exp2","2016_Mar_02_1858",NA
"Recordings/fifa.wav","no","f","f","i","no","a","fifa","Training","bilabial","TrainingItems",1,90,190,58,NA,NA,NA,NA,NA,NA,NA,NA,NA,NA,22,FALSE,18,59.8222293219,NA,"American English","VSH_Exp2","2016_Mar_02_1858",NA
"Recordings/vivu.wav","yes","v","v","i","no","u","vivu","Training","bilabial","TrainingItems",1,91,191,78,NA,NA,NA,NA,NA,NA,NA,NA,NA,NA,22,FALSE,18,59.8222293219,NA,"American English","VSH_Exp2","2016_Mar_02_1858",NA
"Recordings/fufi.wav","no","f","f","u","no","i","fufi","Training","bilabial","TrainingItems",1,92,192,27,NA,NA,NA,NA,NA,NA,NA,NA,NA,NA,22,FALSE,18,59.8222293219,NA,"American English","VSH_Exp2","2016_Mar_02_1858",NA
"Recordings/viva.wav","yes","v","v","i","no","a","viva","Training","bilabial","TrainingItems",1,93,193,44,NA,NA,NA,NA,NA,NA,NA,NA,NA,NA,22,FALSE,18,59.8222293219,NA,"American English","VSH_Exp2","2016_Mar_02_1858",NA
"Recordings/zavi.wav","yes","z","v","a","no","i","zavi","Training","alveolar","TrainingItems",1,94,194,15,NA,NA,NA,NA,NA,NA,NA,NA,NA,NA,22,FALSE,18,59.8222293219,NA,"American English","VSH_Exp2","2016_Mar_02_1858",NA
"Recordings/papu.wav","no","p","p","a","yes","u","papu","Training","bilabial","TrainingItems",1,95,195,74,NA,NA,NA,NA,NA,NA,NA,NA,NA,NA,22,FALSE,18,59.8222293219,NA,"American English","VSH_Exp2","2016_Mar_02_1858",NA
"Recordings/budi.wav","yes","b","d","u","yes","i","budi","Training","bilabial","TrainingItems",1,96,196,70,NA,NA,NA,NA,NA,NA,NA,NA,NA,NA,22,FALSE,18,59.8222293219,NA,"American English","VSH_Exp2","2016_Mar_02_1858",NA
"Recordings/susu.wav","no","s","s","u","no","u","susu","Training","alveolar","TrainingItems",1,97,197,62,NA,NA,NA,NA,NA,NA,NA,NA,NA,NA,22,FALSE,18,59.8222293219,NA,"American English","VSH_Exp2","2016_Mar_02_1858",NA
"Recordings/sasu.wav","no","s","s","a","no","u","sasu","Training","alveolar","TrainingItems",1,98,198,33,NA,NA,NA,NA,NA,NA,NA,NA,NA,NA,22,FALSE,18,59.8222293219,NA,"American English","VSH_Exp2","2016_Mar_02_1858",NA
"Recordings/dabi.wav","yes","d","b","a","yes","i","dabi","Training","alveolar","TrainingItems",1,99,199,65,NA,NA,NA,NA,NA,NA,NA,NA,NA,NA,22,FALSE,18,59.8222293219,NA,"American English","VSH_Exp2","2016_Mar_02_1858",NA
NA,NA,NA,NA,NA,NA,NA,NA,NA,NA,NA,NA,NA,NA,NA,NA,NA,NA,NA,NA,NA,"space",1.36791706085,NA,NA,22,FALSE,18,59.8222293219,NA,"American English","VSH_Exp2","2016_Mar_02_1858",NA
"Recordings/fafu.wav","no","f","f","a","no","u","fafu","Test","bilabial","NewWordTestStimuli",NA,NA,NA,NA,0,0,0,21,NA,NA,NA,NA,"Yes",2.721,22,FALSE,18,59.8222293219,NA,"American English","VSH_Exp2","2016_Mar_02_1858",NA
"Recordings/zivu.wav","yes","z","v","i","no","u","zivu","Test","alveolar","OldTestStimuli",NA,NA,NA,NA,0,1,1,7,NA,NA,NA,NA,"No",3.856,22,FALSE,18,59.8222293219,NA,"American English","VSH_Exp2","2016_Mar_02_1858",NA
"Recordings/vutu.wav","yes","v","t","u","no","u","vutu","Controls","bilabial","NoPatternControls",NA,NA,NA,NA,0,2,2,55,NA,NA,NA,NA,"No",1.436,22,FALSE,18,59.8222293219,NA,"American English","VSH_Exp2","2016_Mar_02_1858",NA
"Recordings/vipu.wav","yes","v","p","i","no","u","vipu","Controls","bilabial","NoPatternControls",NA,NA,NA,NA,0,3,3,52,NA,NA,NA,NA,"No",2.221,22,FALSE,18,59.8222293219,NA,"American English","VSH_Exp2","2016_Mar_02_1858",NA
"Recordings/dudi.wav","yes","d","d","u","yes","i","dudi","Test","alveolar","NewWordTestStimuli",NA,NA,NA,NA,0,4,4,20,NA,NA,NA,NA,"Yes",1.938,22,FALSE,18,59.8222293219,NA,"American English","VSH_Exp2","2016_Mar_02_1858",NA
"Recordings/tupa.wav","no","t","p","u","yes","a","tupa","Test","alveolar","OldTestStimuli",NA,NA,NA,NA,0,5,5,8,NA,NA,NA,NA,"Yes",1.138,22,FALSE,18,59.8222293219,NA,"American English","VSH_Exp2","2016_Mar_02_1858",NA
"Recordings/fitu.wav","no","f","t","i","no","u","fitu","Controls","bilabial","VoicingControls",NA,NA,NA,NA,0,6,6,41,NA,NA,NA,NA,"No",2.171,22,FALSE,18,59.8222293219,NA,"American English","VSH_Exp2","2016_Mar_02_1858",NA
"Recordings/vusa.wav","yes","v","s","u","no","a","vusa","Controls","bilabial","StopControls",NA,NA,NA,NA,0,7,7,32,NA,NA,NA,NA,"Yes",1.77,22,FALSE,18,59.8222293219,NA,"American English","VSH_Exp2","2016_Mar_02_1858",NA
"Recordings/sifa.wav","no","s","f","i","no","a","sifa","Test","alveolar","NewConsTestStimuli",NA,NA,NA,NA,0,8,8,12,NA,NA,NA,NA,"Yes",2.138,22,FALSE,18,59.8222293219,NA,"American English","VSH_Exp2","2016_Mar_02_1858",NA
"Recordings/tupi.wav","no","t","p","u","yes","i","tupi","Test","alveolar","OldTestStimuli",NA,NA,NA,NA,0,9,9,1,NA,NA,NA,NA,"Yes",0.82,22,FALSE,18,59.8222293219,NA,"American English","VSH_Exp2","2016_Mar_02_1858",NA
"Recordings/futu.wav","no","f","t","u","no","u","futu","Controls","bilabial","VoicingControls",NA,NA,NA,NA,0,10,10,43,NA,NA,NA,NA,"Yes",1.154,22,FALSE,18,59.8222293219,NA,"American English","VSH_Exp2","2016_Mar_02_1858",NA
"Recordings/fisa.wav","no","f","s","i","no","a","fisa","Test","bilabial","NewConsTestStimuli",NA,NA,NA,NA,0,11,11,19,NA,NA,NA,NA,"Yes",1.538,22,FALSE,18,59.8222293219,NA,"American English","VSH_Exp2","2016_Mar_02_1858",NA
"Recordings/visa.wav","yes","v","s","i","no","a","visa","Controls","bilabial","StopControls",NA,NA,NA,NA,0,12,12,36,NA,NA,NA,NA,"No",2.689,22,FALSE,18,59.8222293219,NA,"American English","VSH_Exp2","2016_Mar_02_1858",NA
"Recordings/bidi.wav","yes","b","d","i","yes","i","bidi","Test","bilabial","OldTestStimuli",NA,NA,NA,NA,0,13,13,0,NA,NA,NA,NA,"Yes",1.303,22,FALSE,18,59.8222293219,NA,"American English","VSH_Exp2","2016_Mar_02_1858",NA
"Recordings/pufu.wav","no","p","f","u","yes","u","pufu","Controls","bilabial","VoicingControls",NA,NA,NA,NA,0,14,14,47,NA,NA,NA,NA,"Yes",2.988,22,FALSE,18,59.8222293219,NA,"American English","VSH_Exp2","2016_Mar_02_1858",NA
"Recordings/pubu.wav","no","p","b","u","yes","u","pubu","Controls","bilabial","StopControls",NA,NA,NA,NA,0,15,15,37,NA,NA,NA,NA,"No",1.687,22,FALSE,18,59.8222293219,NA,"American English","VSH_Exp2","2016_Mar_02_1858",NA
"Recordings/fava.wav","no","f","v","a","no","a","fava","Controls","bilabial","StopControls",NA,NA,NA,NA,0,16,16,34,NA,NA,NA,NA,"Yes",1.604,22,FALSE,18,59.8222293219,NA,"American English","VSH_Exp2","2016_Mar_02_1858",NA
"Recordings/vufi.wav","yes","v","f","u","no","i","vufi","Controls","bilabial","StopControls",NA,NA,NA,NA,0,17,17,35,NA,NA,NA,NA,"No",2.27,22,FALSE,18,59.8222293219,NA,"American English","VSH_Exp2","2016_Mar_02_1858",NA
"Recordings/dusi.wav","yes","d","s","u","yes","i","dusi","Controls","alveolar","NoPatternControls",NA,NA,NA,NA,0,18,18,58,NA,NA,NA,NA,"No",5.107,22,FALSE,18,59.8222293219,NA,"American English","VSH_Exp2","2016_Mar_02_1858",NA
"Recordings/vuda.wav","yes","v","d","u","no","a","vuda","Controls","bilabial","VoicingControls",NA,NA,NA,NA,0,19,19,42,NA,NA,NA,NA,"Yes",1.219,22,FALSE,18,59.8222293219,NA,"American English","VSH_Exp2","2016_Mar_02_1858",NA
"Recordings/fubu.wav","no","f","b","u","no","u","fubu","Controls","bilabial","NoPatternControls",NA,NA,NA,NA,0,20,20,54,NA,NA,NA,NA,"Yes",1.403,22,FALSE,18,59.8222293219,NA,"American English","VSH_Exp2","2016_Mar_02_1858",NA
"Recordings/dizi.wav","yes","d","z","i","yes","i","dizi","Controls","alveolar","VoicingControls",NA,NA,NA,NA,0,21,21,48,NA,NA,NA,NA,"Yes",1.353,22,FALSE,18,59.8222293219,NA,"American English","VSH_Exp2","2016_Mar_02_1858",NA
"Recordings/fapu.wav","no","f","p","a","no","u","fapu","Controls","bilabial","VoicingControls",NA,NA,NA,NA,0,22,22,44,NA,NA,NA,NA,"Yes",1.22,22,FALSE,18,59.8222293219,NA,"American English","VSH_Exp2","2016_Mar_02_1858",NA
"Recordings/fifi.wav","no","f","f","i","no","i","fifi","Test","bilabial","OldTestStimuli",NA,NA,NA,NA,0,23,23,9,NA,NA,NA,NA,"Yes",0.986,22,FALSE,18,59.8222293219,NA,"American English","VSH_Exp2","2016_Mar_02_1858",NA
"Recordings/fibu.wav","no","f","b","i","no","u","fibu","Controls","bilabial","NoPatternControls",NA,NA,NA,NA,0,24,24,53,NA,NA,NA,NA,"Yes",1.686,22,FALSE,18,59.8222293219,NA,"American English","VSH_Exp2","2016_Mar_02_1858",NA
"Recordings/buda.wav","yes","b","d","u","yes","a","buda","Test","bilabial","OldTestStimuli",NA,NA,NA,NA,0,25,25,3,NA,NA,NA,NA,"Yes",1.002,22,FALSE,18,59.8222293219,NA,"American English","VSH_Exp2","2016_Mar_02_1858",NA
"Recordings/dasi.wav","yes","d","s","a","yes","i","dasi","Controls","alveolar","NoPatternControls",NA,NA,NA,NA,0,26,26,50,NA,NA,NA,NA,"No",2.44,22,FALSE,18,59.8222293219,NA,"American English","VSH_Exp2","2016_Mar_02_1858",NA
"Recordings/fasi.wav","no","f","s","a","no","i","fasi","Test","bilabial","NewConsTestStimuli",NA,NA,NA,NA,0,27,27,13,NA,NA,NA,NA,"Yes",1.138,22,FALSE,18,59.8222293219,NA,"American English","VSH_Exp2","2016_Mar_02_1858",NA
"Recordings/fidi.wav","no","f","d","i","no","i","fidi","Controls","bilabial","NoPatternControls",NA,NA,NA,NA,0,28,28,51,NA,NA,NA,NA,"Yes",1.071,22,FALSE,18,59.8222293219,NA,"American English","VSH_Exp2","2016_Mar_02_1858",NA
"Recordings/dutu.wav","yes","d","t","u","yes","u","dutu","Controls","alveolar","StopControls",NA,NA,NA,NA,0,29,29,30,NA,NA,NA,NA,"Yes",1.136,22,FALSE,18,59.8222293219,NA,"American English","VSH_Exp2","2016_Mar_02_1858",NA
"Recordings/bida.wav","yes","b","d","i","yes","a","bida","Test","bilabial","NewWordTestStimuli",NA,NA,NA,NA,0,30,30,29,NA,NA,NA,NA,"Yes",0.704,22,FALSE,18,59.8222293219,NA,"American English","VSH_Exp2","2016_Mar_02_1858",NA
"Recordings/bavu.wav","yes","b","v","a","yes","u","bavu","Controls","bilabial","VoicingControls",NA,NA,NA,NA,0,31,31,49,NA,NA,NA,NA,"No",2.07,22,FALSE,18,59.8222293219,NA,"American English","VSH_Exp2","2016_Mar_02_1858",NA
"Recordings/zizu.wav","yes","z","z","i","no","u","zizu","Test","alveolar","NewWordTestStimuli",NA,NA,NA,NA,0,32,32,27,NA,NA,NA,NA,"Yes",1.604,22,FALSE,18,59.8222293219,NA,"American English","VSH_Exp2","2016_Mar_02_1858",NA
"Recordings/tuta.wav","no","t","t","u","yes","a","tuta","Test","alveolar","NewWordTestStimuli",NA,NA,NA,NA,0,33,33,25,NA,NA,NA,NA,"Yes",0.869,22,FALSE,18,59.8222293219,NA,"American English","VSH_Exp2","2016_Mar_02_1858",NA
"Recordings/fiza.wav","no","f","z","i","no","a","fiza","Controls","bilabial","StopControls",NA,NA,NA,NA,0,34,34,31,NA,NA,NA,NA,"Yes",0.87,22,FALSE,18,59.8222293219,NA,"American English","VSH_Exp2","2016_Mar_02_1858",NA
"Recordings/bapu.wav","yes","b","p","a","yes","u","bapu","Controls","bilabial","StopControls",NA,NA,NA,NA,0,35,35,39,NA,NA,NA,NA,"Yes",0.952,22,FALSE,18,59.8222293219,NA,"American English","VSH_Exp2","2016_Mar_02_1858",NA
"Recordings/tipi.wav","no","t","p","i","yes","i","tipi","Test","alveolar","OldTestStimuli",NA,NA,NA,NA,0,36,36,6,NA,NA,NA,NA,"Yes",0.753,22,FALSE,18,59.8222293219,NA,"American English","VSH_Exp2","2016_Mar_02_1858",NA
"Recordings/sifi.wav","no","s","f","i","no","i","sifi","Test","alveolar","NewConsTestStimuli",NA,NA,NA,NA,0,37,37,14,NA,NA,NA,NA,"No",1.604,22,FALSE,18,59.8222293219,NA,"American English","VSH_Exp2","2016_Mar_02_1858",NA
"Recordings/pavu.wav","no","p","v","a","yes","u","pavu","Controls","bilabial","NoPatternControls",NA,NA,NA,NA,0,38,38,57,NA,NA,NA,NA,"Yes",1.354,22,FALSE,18,59.8222293219,NA,"American English","VSH_Exp2","2016_Mar_02_1858",NA
"Recordings/vipa.wav","yes","v","p","i","no","a","vipa","Controls","bilabial","NoPatternControls",NA,NA,NA,NA,0,39,39,56,NA,NA,NA,NA,"Yes",0.92,22,FALSE,18,59.8222293219,NA,"American English","VSH_Exp2","2016_Mar_02_1858",NA
"Recordings/sufu.wav","no","s","f","u","no","u","sufu","Test","alveolar","NewConsTestStimuli",NA,NA,NA,NA,0,40,40,16,NA,NA,NA,NA,"Yes",1.002,22,FALSE,18,59.8222293219,NA,"American English","VSH_Exp2","2016_Mar_02_1858",NA
"Recordings/safa.wav","no","s","f","a","no","a","safa","Test","alveolar","NewConsTestStimuli",NA,NA,NA,NA,0,41,41,15,NA,NA,NA,NA,"No",1.138,22,FALSE,18,59.8222293219,NA,"American English","VSH_Exp2","2016_Mar_02_1858",NA
"Recordings/tipu.wav","no","t","p","i","yes","u","tipu","Test","alveolar","NewWordTestStimuli",NA,NA,NA,NA,0,42,42,22,NA,NA,NA,NA,"No",2.254,22,FALSE,18,59.8222293219,NA,"American English","VSH_Exp2","2016_Mar_02_1858",NA
"Recordings/dubu.wav","yes","d","b","u","yes","u","dubu","Test","alveolar","NewWordTestStimuli",NA,NA,NA,NA,0,43,43,23,NA,NA,NA,NA,"Yes",1.069,22,FALSE,18,59.8222293219,NA,"American English","VSH_Exp2","2016_Mar_02_1858",NA
"Recordings/diti.wav","yes","d","t","i","yes","i","diti","Controls","alveolar","StopControls",NA,NA,NA,NA,0,44,44,38,NA,NA,NA,NA,"No",1.622,22,FALSE,18,59.8222293219,NA,"American English","VSH_Exp2","2016_Mar_02_1858",NA
"Recordings/sifu.wav","no","s","f","i","no","u","sifu","Test","alveolar","NewConsTestStimuli",NA,NA,NA,NA,0,45,45,17,NA,NA,NA,NA,"No",3.656,22,FALSE,18,59.8222293219,NA,"American English","VSH_Exp2","2016_Mar_02_1858",NA
"Recordings/vubi.wav","yes","v","b","u","no","i","vubi","Controls","bilabial","VoicingControls",NA,NA,NA,NA,0,46,46,45,NA,NA,NA,NA,"No",1.905,22,FALSE,18,59.8222293219,NA,"American English","VSH_Exp2","2016_Mar_02_1858",NA
"Recordings/vizi.wav","yes","v","z","i","no","i","vizi","Test","bilabial","NewWordTestStimuli",NA,NA,NA,NA,0,47,47,24,NA,NA,NA,NA,"Yes",1.121,22,FALSE,18,59.8222293219,NA,"American English","VSH_Exp2","2016_Mar_02_1858",NA
"Recordings/vavi.wav","yes","v","v","a","no","i","vavi","Test","bilabial","OldTestStimuli",NA,NA,NA,NA,0,48,48,5,NA,NA,NA,NA,"Yes",1.086,22,FALSE,18,59.8222293219,NA,"American English","VSH_Exp2","2016_Mar_02_1858",NA
"Recordings/fusa.wav","no","f","s","u","no","a","fusa","Test","bilabial","NewConsTestStimuli",NA,NA,NA,NA,0,49,49,11,NA,NA,NA,NA,"Yes",1.621,22,FALSE,18,59.8222293219,NA,"American English","VSH_Exp2","2016_Mar_02_1858",NA
"Recordings/tupu.wav","no","t","p","u","yes","u","tupu","Test","alveolar","NewWordTestStimuli",NA,NA,NA,NA,0,50,50,26,NA,NA,NA,NA,"Yes",0.853,22,FALSE,18,59.8222293219,NA,"American English","VSH_Exp2","2016_Mar_02_1858",NA
"Recordings/puti.wav","no","p","t","u","yes","i","puti","Test","bilabial","OldTestStimuli",NA,NA,NA,NA,0,51,51,2,NA,NA,NA,NA,"Yes",1.804,22,FALSE,18,59.8222293219,NA,"American English","VSH_Exp2","2016_Mar_02_1858",NA
"Recordings/fuzi.wav","no","f","z","u","no","i","fuzi","Controls","bilabial","StopControls",NA,NA,NA,NA,0,52,52,33,NA,NA,NA,NA,"Yes",0.836,22,FALSE,18,59.8222293219,NA,"American English","VSH_Exp2","2016_Mar_02_1858",NA
"Recordings/fisi.wav","no","f","s","i","no","i","fisi","Test","bilabial","NewConsTestStimuli",NA,NA,NA,NA,0,53,53,18,NA,NA,NA,NA,"No",2.104,22,FALSE,18,59.8222293219,NA,"American English","VSH_Exp2","2016_Mar_02_1858",NA
"Recordings/fufi.wav","no","f","f","u","no","i","fufi","Test","bilabial","OldTestStimuli",NA,NA,NA,NA,0,54,54,4,NA,NA,NA,NA,"Yes",0.936,22,FALSE,18,59.8222293219,NA,"American English","VSH_Exp2","2016_Mar_02_1858",NA
"Recordings/duzu.wav","yes","d","z","u","yes","u","duzu","Controls","alveolar","VoicingControls",NA,NA,NA,NA,0,55,55,40,NA,NA,NA,NA,"No",1.672,22,FALSE,18,59.8222293219,NA,"American English","VSH_Exp2","2016_Mar_02_1858",NA
"Recordings/bufi.wav","yes","b","f","u","yes","i","bufi","Controls","bilabial","NoPatternControls",NA,NA,NA,NA,0,56,56,59,NA,NA,NA,NA,"No",1.454,22,FALSE,18,59.8222293219,NA,"American English","VSH_Exp2","2016_Mar_02_1858",NA
"Recordings/buba.wav","yes","b","b","u","yes","a","buba","Test","bilabial","NewWordTestStimuli",NA,NA,NA,NA,0,57,57,28,NA,NA,NA,NA,"Yes",1.053,22,FALSE,18,59.8222293219,NA,"American English","VSH_Exp2","2016_Mar_02_1858",NA
"Recordings/fasa.wav","no","f","s","a","no","a","fasa","Test","bilabial","NewConsTestStimuli",NA,NA,NA,NA,0,58,58,10,NA,NA,NA,NA,"Yes",0.837,22,FALSE,18,59.8222293219,NA,"American English","VSH_Exp2","2016_Mar_02_1858",NA
"Recordings/vida.wav","yes","v","d","i","no","a","vida","Controls","bilabial","VoicingControls",NA,NA,NA,NA,0,59,59,46,NA,NA,NA,NA,"Yes",3.455,22,FALSE,18,59.8222293219,NA,"American English","VSH_Exp2","2016_Mar_02_1858",NA
