"SOUND","VOICING","SEGMENT","SEGMENT3","SEGMENT2","STOP","SEGMENT4","STIMULUS","GENERAL_TYPE","PLACE","TYPE","trials.thisRepN","trials.thisTrialN","trials.thisN","trials.thisIndex","trials_2.thisRepN","trials_2.thisTrialN","trials_2.thisN","trials_2.thisIndex","SpaceBar.keys","SpaceBar.rt","key_resp_2.keys","key_resp_2.rt","rating.response","rating.rt","participant","Gender","Age","frameRate","OtherLanguages","NativeLanguage","expName","date","X34"
NA,NA,NA,NA,NA,NA,NA,NA,NA,NA,NA,NA,NA,NA,NA,NA,NA,NA,NA,"space",6.55734801292,NA,NA,NA,NA,23,FALSE,18,59.8458730886,NA,"American English","VSH_Exp2","2016_Mar_03_1205",NA
"Recordings/vuvu.wav","yes","v","v","u","no","u","vuvu","Training","bilabial","TrainingItems",0,0,0,2,NA,NA,NA,NA,NA,NA,NA,NA,NA,NA,23,FALSE,18,59.8458730886,NA,"American English","VSH_Exp2","2016_Mar_03_1205",NA
"Recordings/vuvi.wav","yes","v","v","u","no","i","vuvi","Training","bilabial","TrainingItems",0,1,1,46,NA,NA,NA,NA,NA,NA,NA,NA,NA,NA,23,FALSE,18,59.8458730886,NA,"American English","VSH_Exp2","2016_Mar_03_1205",NA
"Recordings/baba.wav","yes","b","b","a","yes","a","baba","Training","bilabial","TrainingItems",0,2,2,21,NA,NA,NA,NA,NA,NA,NA,NA,NA,NA,23,FALSE,18,59.8458730886,NA,"American English","VSH_Exp2","2016_Mar_03_1205",NA
"Recordings/sasi.wav","no","s","s","a","no","i","sasi","Training","alveolar","TrainingItems",0,3,3,81,NA,NA,NA,NA,NA,NA,NA,NA,NA,NA,23,FALSE,18,59.8458730886,NA,"American English","VSH_Exp2","2016_Mar_03_1205",NA
"Recordings/dabu.wav","yes","d","b","a","yes","u","dabu","Training","alveolar","TrainingItems",0,4,4,15,NA,NA,NA,NA,NA,NA,NA,NA,NA,NA,23,FALSE,18,59.8458730886,NA,"American English","VSH_Exp2","2016_Mar_03_1205",NA
"Recordings/didi.wav","yes","d","d","i","yes","i","didi","Training","alveolar","TrainingItems",0,5,5,80,NA,NA,NA,NA,NA,NA,NA,NA,NA,NA,23,FALSE,18,59.8458730886,NA,"American English","VSH_Exp2","2016_Mar_03_1205",NA
"Recordings/tati.wav","no","t","t","a","yes","i","tati","Training","alveolar","TrainingItems",0,6,6,0,NA,NA,NA,NA,NA,NA,NA,NA,NA,NA,23,FALSE,18,59.8458730886,NA,"American English","VSH_Exp2","2016_Mar_03_1205",NA
"Recordings/piti.wav","no","p","t","i","yes","i","piti","Training","bilabial","TrainingItems",0,7,7,82,NA,NA,NA,NA,NA,NA,NA,NA,NA,NA,23,FALSE,18,59.8458730886,NA,"American English","VSH_Exp2","2016_Mar_03_1205",NA
"Recordings/dada.wav","yes","d","d","a","yes","a","dada","Training","alveolar","TrainingItems",0,8,8,11,NA,NA,NA,NA,NA,NA,NA,NA,NA,NA,23,FALSE,18,59.8458730886,NA,"American English","VSH_Exp2","2016_Mar_03_1205",NA
"Recordings/dubu.wav","yes","d","b","u","yes","u","dubu","Training","alveolar","TrainingItems",0,9,9,60,NA,NA,NA,NA,NA,NA,NA,NA,NA,NA,23,FALSE,18,59.8458730886,NA,"American English","VSH_Exp2","2016_Mar_03_1205",NA
"Recordings/tatu.wav","no","t","t","a","yes","u","tatu","Training","alveolar","TrainingItems",0,10,10,96,NA,NA,NA,NA,NA,NA,NA,NA,NA,NA,23,FALSE,18,59.8458730886,NA,"American English","VSH_Exp2","2016_Mar_03_1205",NA
"Recordings/pata.wav","no","p","t","a","yes","a","pata","Training","bilabial","TrainingItems",0,11,11,73,NA,NA,NA,NA,NA,NA,NA,NA,NA,NA,23,FALSE,18,59.8458730886,NA,"American English","VSH_Exp2","2016_Mar_03_1205",NA
"Recordings/vavu.wav","yes","v","v","a","no","u","vavu","Training","bilabial","TrainingItems",0,12,12,92,NA,NA,NA,NA,NA,NA,NA,NA,NA,NA,23,FALSE,18,59.8458730886,NA,"American English","VSH_Exp2","2016_Mar_03_1205",NA
"Recordings/fusu.wav","no","f","s","u","no","u","fusu","Training","bilabial","TrainingItems",0,13,13,76,NA,NA,NA,NA,NA,NA,NA,NA,NA,NA,23,FALSE,18,59.8458730886,NA,"American English","VSH_Exp2","2016_Mar_03_1205",NA
"Recordings/fusi.wav","no","f","s","u","no","i","fusi","Training","bilabial","TrainingItems",0,14,14,29,NA,NA,NA,NA,NA,NA,NA,NA,NA,NA,23,FALSE,18,59.8458730886,NA,"American English","VSH_Exp2","2016_Mar_03_1205",NA
"Recordings/tutu.wav","no","t","t","u","yes","u","tutu","Training","alveolar","TrainingItems",0,15,15,86,NA,NA,NA,NA,NA,NA,NA,NA,NA,NA,23,FALSE,18,59.8458730886,NA,"American English","VSH_Exp2","2016_Mar_03_1205",NA
"Recordings/budi.wav","yes","b","d","u","yes","i","budi","Training","bilabial","TrainingItems",0,16,16,93,NA,NA,NA,NA,NA,NA,NA,NA,NA,NA,23,FALSE,18,59.8458730886,NA,"American English","VSH_Exp2","2016_Mar_03_1205",NA
"Recordings/biba.wav","yes","b","b","i","yes","a","biba","Training","bilabial","TrainingItems",0,17,17,18,NA,NA,NA,NA,NA,NA,NA,NA,NA,NA,23,FALSE,18,59.8458730886,NA,"American English","VSH_Exp2","2016_Mar_03_1205",NA
"Recordings/fafa.wav","no","f","f","a","no","a","fafa","Training","bilabial","TrainingItems",0,18,18,88,NA,NA,NA,NA,NA,NA,NA,NA,NA,NA,23,FALSE,18,59.8458730886,NA,"American English","VSH_Exp2","2016_Mar_03_1205",NA
"Recordings/fufa.wav","no","f","f","u","no","a","fufa","Training","bilabial","TrainingItems",0,19,19,34,NA,NA,NA,NA,NA,NA,NA,NA,NA,NA,23,FALSE,18,59.8458730886,NA,"American English","VSH_Exp2","2016_Mar_03_1205",NA
"Recordings/fasa.wav","no","f","s","a","no","a","fasa","Training","bilabial","TrainingItems",0,20,20,33,NA,NA,NA,NA,NA,NA,NA,NA,NA,NA,23,FALSE,18,59.8458730886,NA,"American English","VSH_Exp2","2016_Mar_03_1205",NA
"Recordings/titu.wav","no","t","t","i","yes","u","titu","Training","alveolar","TrainingItems",0,21,21,55,NA,NA,NA,NA,NA,NA,NA,NA,NA,NA,23,FALSE,18,59.8458730886,NA,"American English","VSH_Exp2","2016_Mar_03_1205",NA
"Recordings/vivi.wav","yes","v","v","i","no","i","vivi","Training","bilabial","TrainingItems",0,22,22,7,NA,NA,NA,NA,NA,NA,NA,NA,NA,NA,23,FALSE,18,59.8458730886,NA,"American English","VSH_Exp2","2016_Mar_03_1205",NA
"Recordings/titi.wav","no","t","t","i","yes","i","titi","Training","alveolar","TrainingItems",0,23,23,72,NA,NA,NA,NA,NA,NA,NA,NA,NA,NA,23,FALSE,18,59.8458730886,NA,"American English","VSH_Exp2","2016_Mar_03_1205",NA
"Recordings/bada.wav","yes","b","d","a","yes","a","bada","Training","bilabial","TrainingItems",0,24,24,3,NA,NA,NA,NA,NA,NA,NA,NA,NA,NA,23,FALSE,18,59.8458730886,NA,"American English","VSH_Exp2","2016_Mar_03_1205",NA
"Recordings/zizu.wav","yes","z","z","i","no","u","zizu","Training","alveolar","TrainingItems",0,25,25,69,NA,NA,NA,NA,NA,NA,NA,NA,NA,NA,23,FALSE,18,59.8458730886,NA,"American English","VSH_Exp2","2016_Mar_03_1205",NA
"Recordings/fusa.wav","no","f","s","u","no","a","fusa","Training","bilabial","TrainingItems",0,26,26,58,NA,NA,NA,NA,NA,NA,NA,NA,NA,NA,23,FALSE,18,59.8458730886,NA,"American English","VSH_Exp2","2016_Mar_03_1205",NA
"Recordings/fifi.wav","no","f","f","i","no","i","fifi","Training","bilabial","TrainingItems",0,27,27,63,NA,NA,NA,NA,NA,NA,NA,NA,NA,NA,23,FALSE,18,59.8458730886,NA,"American English","VSH_Exp2","2016_Mar_03_1205",NA
"Recordings/pipa.wav","no","p","p","i","yes","a","pipa","Training","bilabial","TrainingItems",0,28,28,57,NA,NA,NA,NA,NA,NA,NA,NA,NA,NA,23,FALSE,18,59.8458730886,NA,"American English","VSH_Exp2","2016_Mar_03_1205",NA
"Recordings/pupi.wav","no","p","p","u","yes","i","pupi","Training","bilabial","TrainingItems",0,29,29,95,NA,NA,NA,NA,NA,NA,NA,NA,NA,NA,23,FALSE,18,59.8458730886,NA,"American English","VSH_Exp2","2016_Mar_03_1205",NA
"Recordings/susi.wav","no","s","s","u","no","i","susi","Training","alveolar","TrainingItems",0,30,30,53,NA,NA,NA,NA,NA,NA,NA,NA,NA,NA,23,FALSE,18,59.8458730886,NA,"American English","VSH_Exp2","2016_Mar_03_1205",NA
"Recordings/tapu.wav","no","t","p","a","yes","u","tapu","Training","alveolar","TrainingItems",0,31,31,26,NA,NA,NA,NA,NA,NA,NA,NA,NA,NA,23,FALSE,18,59.8458730886,NA,"American English","VSH_Exp2","2016_Mar_03_1205",NA
"Recordings/tupi.wav","no","t","p","u","yes","i","tupi","Training","alveolar","TrainingItems",0,32,32,24,NA,NA,NA,NA,NA,NA,NA,NA,NA,NA,23,FALSE,18,59.8458730886,NA,"American English","VSH_Exp2","2016_Mar_03_1205",NA
"Recordings/sifu.wav","no","s","f","i","no","u","sifu","Training","alveolar","TrainingItems",0,33,33,37,NA,NA,NA,NA,NA,NA,NA,NA,NA,NA,23,FALSE,18,59.8458730886,NA,"American English","VSH_Exp2","2016_Mar_03_1205",NA
"Recordings/sufu.wav","no","s","f","u","no","u","sufu","Training","alveolar","TrainingItems",0,34,34,98,NA,NA,NA,NA,NA,NA,NA,NA,NA,NA,23,FALSE,18,59.8458730886,NA,"American English","VSH_Exp2","2016_Mar_03_1205",NA
"Recordings/sasu.wav","no","s","s","a","no","u","sasu","Training","alveolar","TrainingItems",0,35,35,50,NA,NA,NA,NA,NA,NA,NA,NA,NA,NA,23,FALSE,18,59.8458730886,NA,"American English","VSH_Exp2","2016_Mar_03_1205",NA
"Recordings/fufi.wav","no","f","f","u","no","i","fufi","Training","bilabial","TrainingItems",0,36,36,52,NA,NA,NA,NA,NA,NA,NA,NA,NA,NA,23,FALSE,18,59.8458730886,NA,"American English","VSH_Exp2","2016_Mar_03_1205",NA
"Recordings/sufa.wav","no","s","f","u","no","a","sufa","Training","alveolar","TrainingItems",0,37,37,71,NA,NA,NA,NA,NA,NA,NA,NA,NA,NA,23,FALSE,18,59.8458730886,NA,"American English","VSH_Exp2","2016_Mar_03_1205",NA
"Recordings/duda.wav","yes","d","d","u","yes","a","duda","Training","alveolar","TrainingItems",0,38,38,54,NA,NA,NA,NA,NA,NA,NA,NA,NA,NA,23,FALSE,18,59.8458730886,NA,"American English","VSH_Exp2","2016_Mar_03_1205",NA
"Recordings/babi.wav","yes","b","b","a","yes","i","babi","Training","bilabial","TrainingItems",0,39,39,36,NA,NA,NA,NA,NA,NA,NA,NA,NA,NA,23,FALSE,18,59.8458730886,NA,"American English","VSH_Exp2","2016_Mar_03_1205",NA
"Recordings/buda.wav","yes","b","d","u","yes","a","buda","Training","bilabial","TrainingItems",0,40,40,89,NA,NA,NA,NA,NA,NA,NA,NA,NA,NA,23,FALSE,18,59.8458730886,NA,"American English","VSH_Exp2","2016_Mar_03_1205",NA
"Recordings/fifu.wav","no","f","f","i","no","u","fifu","Training","bilabial","TrainingItems",0,41,41,44,NA,NA,NA,NA,NA,NA,NA,NA,NA,NA,23,FALSE,18,59.8458730886,NA,"American English","VSH_Exp2","2016_Mar_03_1205",NA
"Recordings/tita.wav","no","t","t","i","yes","a","tita","Training","alveolar","TrainingItems",0,42,42,35,NA,NA,NA,NA,NA,NA,NA,NA,NA,NA,23,FALSE,18,59.8458730886,NA,"American English","VSH_Exp2","2016_Mar_03_1205",NA
"Recordings/duba.wav","yes","d","b","u","yes","a","duba","Training","alveolar","TrainingItems",0,43,43,48,NA,NA,NA,NA,NA,NA,NA,NA,NA,NA,23,FALSE,18,59.8458730886,NA,"American English","VSH_Exp2","2016_Mar_03_1205",NA
"Recordings/bidu.wav","yes","b","d","i","yes","u","bidu","Training","bilabial","TrainingItems",0,44,44,17,NA,NA,NA,NA,NA,NA,NA,NA,NA,NA,23,FALSE,18,59.8458730886,NA,"American English","VSH_Exp2","2016_Mar_03_1205",NA
"Recordings/dida.wav","yes","d","d","i","yes","a","dida","Training","alveolar","TrainingItems",0,45,45,77,NA,NA,NA,NA,NA,NA,NA,NA,NA,NA,23,FALSE,18,59.8458730886,NA,"American English","VSH_Exp2","2016_Mar_03_1205",NA
"Recordings/tupa.wav","no","t","p","u","yes","a","tupa","Training","alveolar","TrainingItems",0,46,46,9,NA,NA,NA,NA,NA,NA,NA,NA,NA,NA,23,FALSE,18,59.8458730886,NA,"American English","VSH_Exp2","2016_Mar_03_1205",NA
"Recordings/zuza.wav","yes","z","z","u","no","a","zuza","Training","alveolar","TrainingItems",0,47,47,31,NA,NA,NA,NA,NA,NA,NA,NA,NA,NA,23,FALSE,18,59.8458730886,NA,"American English","VSH_Exp2","2016_Mar_03_1205",NA
"Recordings/fasu.wav","no","f","s","a","no","u","fasu","Training","bilabial","TrainingItems",0,48,48,70,NA,NA,NA,NA,NA,NA,NA,NA,NA,NA,23,FALSE,18,59.8458730886,NA,"American English","VSH_Exp2","2016_Mar_03_1205",NA
"Recordings/fufu.wav","no","f","f","u","no","u","fufu","Training","bilabial","TrainingItems",0,49,49,8,NA,NA,NA,NA,NA,NA,NA,NA,NA,NA,23,FALSE,18,59.8458730886,NA,"American English","VSH_Exp2","2016_Mar_03_1205",NA
"Recordings/budu.wav","yes","b","d","u","yes","u","budu","Training","bilabial","TrainingItems",0,50,50,45,NA,NA,NA,NA,NA,NA,NA,NA,NA,NA,23,FALSE,18,59.8458730886,NA,"American English","VSH_Exp2","2016_Mar_03_1205",NA
"Recordings/dibu.wav","yes","d","b","i","yes","u","dibu","Training","alveolar","TrainingItems",0,51,51,91,NA,NA,NA,NA,NA,NA,NA,NA,NA,NA,23,FALSE,18,59.8458730886,NA,"American English","VSH_Exp2","2016_Mar_03_1205",NA
"Recordings/pupu.wav","no","p","p","u","yes","u","pupu","Training","bilabial","TrainingItems",0,52,52,12,NA,NA,NA,NA,NA,NA,NA,NA,NA,NA,23,FALSE,18,59.8458730886,NA,"American English","VSH_Exp2","2016_Mar_03_1205",NA
"Recordings/dudi.wav","yes","d","d","u","yes","i","dudi","Training","alveolar","TrainingItems",0,53,53,94,NA,NA,NA,NA,NA,NA,NA,NA,NA,NA,23,FALSE,18,59.8458730886,NA,"American English","VSH_Exp2","2016_Mar_03_1205",NA
"Recordings/bubu.wav","yes","b","b","u","yes","u","bubu","Training","bilabial","TrainingItems",0,54,54,1,NA,NA,NA,NA,NA,NA,NA,NA,NA,NA,23,FALSE,18,59.8458730886,NA,"American English","VSH_Exp2","2016_Mar_03_1205",NA
"Recordings/sisi.wav","no","s","s","i","no","i","sisi","Training","alveolar","TrainingItems",0,55,55,62,NA,NA,NA,NA,NA,NA,NA,NA,NA,NA,23,FALSE,18,59.8458730886,NA,"American English","VSH_Exp2","2016_Mar_03_1205",NA
"Recordings/tipa.wav","no","t","p","i","yes","a","tipa","Training","alveolar","TrainingItems",0,56,56,61,NA,NA,NA,NA,NA,NA,NA,NA,NA,NA,23,FALSE,18,59.8458730886,NA,"American English","VSH_Exp2","2016_Mar_03_1205",NA
"Recordings/dadu.wav","yes","d","d","a","yes","u","dadu","Training","alveolar","TrainingItems",0,57,57,78,NA,NA,NA,NA,NA,NA,NA,NA,NA,NA,23,FALSE,18,59.8458730886,NA,"American English","VSH_Exp2","2016_Mar_03_1205",NA
"Recordings/fisa.wav","no","f","s","i","no","a","fisa","Training","bilabial","TrainingItems",0,58,58,99,NA,NA,NA,NA,NA,NA,NA,NA,NA,NA,23,FALSE,18,59.8458730886,NA,"American English","VSH_Exp2","2016_Mar_03_1205",NA
"Recordings/dibi.wav","yes","d","b","i","yes","i","dibi","Training","alveolar","TrainingItems",0,59,59,39,NA,NA,NA,NA,NA,NA,NA,NA,NA,NA,23,FALSE,18,59.8458730886,NA,"American English","VSH_Exp2","2016_Mar_03_1205",NA
"Recordings/dubi.wav","yes","d","b","u","yes","i","dubi","Training","alveolar","TrainingItems",0,60,60,68,NA,NA,NA,NA,NA,NA,NA,NA,NA,NA,23,FALSE,18,59.8458730886,NA,"American English","VSH_Exp2","2016_Mar_03_1205",NA
"Recordings/fifa.wav","no","f","f","i","no","a","fifa","Training","bilabial","TrainingItems",0,61,61,10,NA,NA,NA,NA,NA,NA,NA,NA,NA,NA,23,FALSE,18,59.8458730886,NA,"American English","VSH_Exp2","2016_Mar_03_1205",NA
"Recordings/putu.wav","no","p","t","u","yes","u","putu","Training","bilabial","TrainingItems",0,62,62,84,NA,NA,NA,NA,NA,NA,NA,NA,NA,NA,23,FALSE,18,59.8458730886,NA,"American English","VSH_Exp2","2016_Mar_03_1205",NA
"Recordings/sifi.wav","no","s","f","i","no","i","sifi","Training","alveolar","TrainingItems",0,63,63,41,NA,NA,NA,NA,NA,NA,NA,NA,NA,NA,23,FALSE,18,59.8458730886,NA,"American English","VSH_Exp2","2016_Mar_03_1205",NA
"Recordings/tuta.wav","no","t","t","u","yes","a","tuta","Training","alveolar","TrainingItems",0,64,64,32,NA,NA,NA,NA,NA,NA,NA,NA,NA,NA,23,FALSE,18,59.8458730886,NA,"American English","VSH_Exp2","2016_Mar_03_1205",NA
"Recordings/zizi.wav","yes","z","z","i","no","i","zizi","Training","alveolar","TrainingItems",0,65,65,43,NA,NA,NA,NA,NA,NA,NA,NA,NA,NA,23,FALSE,18,59.8458730886,NA,"American English","VSH_Exp2","2016_Mar_03_1205",NA
"Recordings/papi.wav","no","p","p","a","yes","i","papi","Training","bilabial","TrainingItems",0,66,66,67,NA,NA,NA,NA,NA,NA,NA,NA,NA,NA,23,FALSE,18,59.8458730886,NA,"American English","VSH_Exp2","2016_Mar_03_1205",NA
"Recordings/tipi.wav","no","t","p","i","yes","i","tipi","Training","alveolar","TrainingItems",0,67,67,49,NA,NA,NA,NA,NA,NA,NA,NA,NA,NA,23,FALSE,18,59.8458730886,NA,"American English","VSH_Exp2","2016_Mar_03_1205",NA
"Recordings/vava.wav","yes","v","v","a","no","a","vava","Training","bilabial","TrainingItems",0,68,68,64,NA,NA,NA,NA,NA,NA,NA,NA,NA,NA,23,FALSE,18,59.8458730886,NA,"American English","VSH_Exp2","2016_Mar_03_1205",NA
"Recordings/patu.wav","no","p","t","a","yes","u","patu","Training","bilabial","TrainingItems",0,69,69,87,NA,NA,NA,NA,NA,NA,NA,NA,NA,NA,23,FALSE,18,59.8458730886,NA,"American English","VSH_Exp2","2016_Mar_03_1205",NA
"Recordings/tata.wav","no","t","t","a","yes","a","tata","Training","alveolar","TrainingItems",0,70,70,16,NA,NA,NA,NA,NA,NA,NA,NA,NA,NA,23,FALSE,18,59.8458730886,NA,"American English","VSH_Exp2","2016_Mar_03_1205",NA
"Recordings/babu.wav","yes","b","b","a","yes","u","babu","Training","bilabial","TrainingItems",0,71,71,5,NA,NA,NA,NA,NA,NA,NA,NA,NA,NA,23,FALSE,18,59.8458730886,NA,"American English","VSH_Exp2","2016_Mar_03_1205",NA
"Recordings/tipu.wav","no","t","p","i","yes","u","tipu","Training","alveolar","TrainingItems",0,72,72,65,NA,NA,NA,NA,NA,NA,NA,NA,NA,NA,23,FALSE,18,59.8458730886,NA,"American English","VSH_Exp2","2016_Mar_03_1205",NA
"Recordings/pita.wav","no","p","t","i","yes","a","pita","Training","bilabial","TrainingItems",0,73,73,4,NA,NA,NA,NA,NA,NA,NA,NA,NA,NA,23,FALSE,18,59.8458730886,NA,"American English","VSH_Exp2","2016_Mar_03_1205",NA
"Recordings/bubi.wav","yes","b","b","u","yes","i","bubi","Training","bilabial","TrainingItems",0,74,74,6,NA,NA,NA,NA,NA,NA,NA,NA,NA,NA,23,FALSE,18,59.8458730886,NA,"American English","VSH_Exp2","2016_Mar_03_1205",NA
"Recordings/bibi.wav","yes","b","b","i","yes","i","bibi","Training","bilabial","TrainingItems",0,75,75,42,NA,NA,NA,NA,NA,NA,NA,NA,NA,NA,23,FALSE,18,59.8458730886,NA,"American English","VSH_Exp2","2016_Mar_03_1205",NA
"Recordings/pipu.wav","no","p","p","i","yes","u","pipu","Training","bilabial","TrainingItems",0,76,76,27,NA,NA,NA,NA,NA,NA,NA,NA,NA,NA,23,FALSE,18,59.8458730886,NA,"American English","VSH_Exp2","2016_Mar_03_1205",NA
"Recordings/sufi.wav","no","s","f","u","no","i","sufi","Training","alveolar","TrainingItems",0,77,77,40,NA,NA,NA,NA,NA,NA,NA,NA,NA,NA,23,FALSE,18,59.8458730886,NA,"American English","VSH_Exp2","2016_Mar_03_1205",NA
"Recordings/ziza.wav","yes","z","z","i","no","a","ziza","Training","alveolar","TrainingItems",0,78,78,75,NA,NA,NA,NA,NA,NA,NA,NA,NA,NA,23,FALSE,18,59.8458730886,NA,"American English","VSH_Exp2","2016_Mar_03_1205",NA
"Recordings/fasi.wav","no","f","s","a","no","i","fasi","Training","bilabial","TrainingItems",0,79,79,23,NA,NA,NA,NA,NA,NA,NA,NA,NA,NA,23,FALSE,18,59.8458730886,NA,"American English","VSH_Exp2","2016_Mar_03_1205",NA
"Recordings/sisa.wav","no","s","s","i","no","a","sisa","Training","alveolar","TrainingItems",0,80,80,59,NA,NA,NA,NA,NA,NA,NA,NA,NA,NA,23,FALSE,18,59.8458730886,NA,"American English","VSH_Exp2","2016_Mar_03_1205",NA
"Recordings/viva.wav","yes","v","v","i","no","a","viva","Training","bilabial","TrainingItems",0,81,81,90,NA,NA,NA,NA,NA,NA,NA,NA,NA,NA,23,FALSE,18,59.8458730886,NA,"American English","VSH_Exp2","2016_Mar_03_1205",NA
"Recordings/zazu.wav","yes","z","z","a","no","u","zazu","Training","alveolar","TrainingItems",0,82,82,74,NA,NA,NA,NA,NA,NA,NA,NA,NA,NA,23,FALSE,18,59.8458730886,NA,"American English","VSH_Exp2","2016_Mar_03_1205",NA
"Recordings/tupu.wav","no","t","p","u","yes","u","tupu","Training","alveolar","TrainingItems",0,83,83,79,NA,NA,NA,NA,NA,NA,NA,NA,NA,NA,23,FALSE,18,59.8458730886,NA,"American English","VSH_Exp2","2016_Mar_03_1205",NA
"Recordings/bibu.wav","yes","b","b","i","yes","u","bibu","Training","bilabial","TrainingItems",0,84,84,22,NA,NA,NA,NA,NA,NA,NA,NA,NA,NA,23,FALSE,18,59.8458730886,NA,"American English","VSH_Exp2","2016_Mar_03_1205",NA
"Recordings/zazi.wav","yes","z","z","a","no","i","zazi","Training","alveolar","TrainingItems",0,85,85,38,NA,NA,NA,NA,NA,NA,NA,NA,NA,NA,23,FALSE,18,59.8458730886,NA,"American English","VSH_Exp2","2016_Mar_03_1205",NA
"Recordings/tuti.wav","no","t","t","u","yes","i","tuti","Training","alveolar","TrainingItems",0,86,86,56,NA,NA,NA,NA,NA,NA,NA,NA,NA,NA,23,FALSE,18,59.8458730886,NA,"American English","VSH_Exp2","2016_Mar_03_1205",NA
"Recordings/puti.wav","no","p","t","u","yes","i","puti","Training","bilabial","TrainingItems",0,87,87,47,NA,NA,NA,NA,NA,NA,NA,NA,NA,NA,23,FALSE,18,59.8458730886,NA,"American English","VSH_Exp2","2016_Mar_03_1205",NA
"Recordings/fisi.wav","no","f","s","i","no","i","fisi","Training","bilabial","TrainingItems",0,88,88,83,NA,NA,NA,NA,NA,NA,NA,NA,NA,NA,23,FALSE,18,59.8458730886,NA,"American English","VSH_Exp2","2016_Mar_03_1205",NA
"Recordings/diba.wav","yes","d","b","i","yes","a","diba","Training","alveolar","TrainingItems",0,89,89,85,NA,NA,NA,NA,NA,NA,NA,NA,NA,NA,23,FALSE,18,59.8458730886,NA,"American English","VSH_Exp2","2016_Mar_03_1205",NA
"Recordings/safi.wav","no","s","f","a","no","i","safi","Training","alveolar","TrainingItems",0,90,90,14,NA,NA,NA,NA,NA,NA,NA,NA,NA,NA,23,FALSE,18,59.8458730886,NA,"American English","VSH_Exp2","2016_Mar_03_1205",NA
"Recordings/sisu.wav","no","s","s","i","no","u","sisu","Training","alveolar","TrainingItems",0,91,91,28,NA,NA,NA,NA,NA,NA,NA,NA,NA,NA,23,FALSE,18,59.8458730886,NA,"American English","VSH_Exp2","2016_Mar_03_1205",NA
"Recordings/badi.wav","yes","b","d","a","yes","i","badi","Training","bilabial","TrainingItems",0,92,92,19,NA,NA,NA,NA,NA,NA,NA,NA,NA,NA,23,FALSE,18,59.8458730886,NA,"American English","VSH_Exp2","2016_Mar_03_1205",NA
"Recordings/tapi.wav","no","t","p","a","yes","i","tapi","Training","alveolar","TrainingItems",0,93,93,20,NA,NA,NA,NA,NA,NA,NA,NA,NA,NA,23,FALSE,18,59.8458730886,NA,"American English","VSH_Exp2","2016_Mar_03_1205",NA
"Recordings/safa.wav","no","s","f","a","no","a","safa","Training","alveolar","TrainingItems",0,94,94,30,NA,NA,NA,NA,NA,NA,NA,NA,NA,NA,23,FALSE,18,59.8458730886,NA,"American English","VSH_Exp2","2016_Mar_03_1205",NA
"Recordings/daba.wav","yes","d","b","a","yes","a","daba","Training","alveolar","TrainingItems",0,95,95,51,NA,NA,NA,NA,NA,NA,NA,NA,NA,NA,23,FALSE,18,59.8458730886,NA,"American English","VSH_Exp2","2016_Mar_03_1205",NA
"Recordings/vuva.wav","yes","v","v","u","no","a","vuva","Training","bilabial","TrainingItems",0,96,96,13,NA,NA,NA,NA,NA,NA,NA,NA,NA,NA,23,FALSE,18,59.8458730886,NA,"American English","VSH_Exp2","2016_Mar_03_1205",NA
"Recordings/papa.wav","no","p","p","a","yes","a","papa","Training","bilabial","TrainingItems",0,97,97,25,NA,NA,NA,NA,NA,NA,NA,NA,NA,NA,23,FALSE,18,59.8458730886,NA,"American English","VSH_Exp2","2016_Mar_03_1205",NA
"Recordings/tapa.wav","no","t","p","a","yes","a","tapa","Training","alveolar","TrainingItems",0,98,98,66,NA,NA,NA,NA,NA,NA,NA,NA,NA,NA,23,FALSE,18,59.8458730886,NA,"American English","VSH_Exp2","2016_Mar_03_1205",NA
"Recordings/vivu.wav","yes","v","v","i","no","u","vivu","Training","bilabial","TrainingItems",0,99,99,97,NA,NA,NA,NA,NA,NA,NA,NA,NA,NA,23,FALSE,18,59.8458730886,NA,"American English","VSH_Exp2","2016_Mar_03_1205",NA
"Recordings/sufi.wav","no","s","f","u","no","i","sufi","Training","alveolar","TrainingItems",1,0,100,40,NA,NA,NA,NA,NA,NA,NA,NA,NA,NA,23,FALSE,18,59.8458730886,NA,"American English","VSH_Exp2","2016_Mar_03_1205",NA
"Recordings/babi.wav","yes","b","b","a","yes","i","babi","Training","bilabial","TrainingItems",1,1,101,36,NA,NA,NA,NA,NA,NA,NA,NA,NA,NA,23,FALSE,18,59.8458730886,NA,"American English","VSH_Exp2","2016_Mar_03_1205",NA
"Recordings/sasu.wav","no","s","s","a","no","u","sasu","Training","alveolar","TrainingItems",1,2,102,50,NA,NA,NA,NA,NA,NA,NA,NA,NA,NA,23,FALSE,18,59.8458730886,NA,"American English","VSH_Exp2","2016_Mar_03_1205",NA
"Recordings/sufu.wav","no","s","f","u","no","u","sufu","Training","alveolar","TrainingItems",1,3,103,98,NA,NA,NA,NA,NA,NA,NA,NA,NA,NA,23,FALSE,18,59.8458730886,NA,"American English","VSH_Exp2","2016_Mar_03_1205",NA
"Recordings/budi.wav","yes","b","d","u","yes","i","budi","Training","bilabial","TrainingItems",1,4,104,93,NA,NA,NA,NA,NA,NA,NA,NA,NA,NA,23,FALSE,18,59.8458730886,NA,"American English","VSH_Exp2","2016_Mar_03_1205",NA
"Recordings/pita.wav","no","p","t","i","yes","a","pita","Training","bilabial","TrainingItems",1,5,105,4,NA,NA,NA,NA,NA,NA,NA,NA,NA,NA,23,FALSE,18,59.8458730886,NA,"American English","VSH_Exp2","2016_Mar_03_1205",NA
"Recordings/fifa.wav","no","f","f","i","no","a","fifa","Training","bilabial","TrainingItems",1,6,106,10,NA,NA,NA,NA,NA,NA,NA,NA,NA,NA,23,FALSE,18,59.8458730886,NA,"American English","VSH_Exp2","2016_Mar_03_1205",NA
"Recordings/tupi.wav","no","t","p","u","yes","i","tupi","Training","alveolar","TrainingItems",1,7,107,24,NA,NA,NA,NA,NA,NA,NA,NA,NA,NA,23,FALSE,18,59.8458730886,NA,"American English","VSH_Exp2","2016_Mar_03_1205",NA
"Recordings/bubu.wav","yes","b","b","u","yes","u","bubu","Training","bilabial","TrainingItems",1,8,108,1,NA,NA,NA,NA,NA,NA,NA,NA,NA,NA,23,FALSE,18,59.8458730886,NA,"American English","VSH_Exp2","2016_Mar_03_1205",NA
"Recordings/tapa.wav","no","t","p","a","yes","a","tapa","Training","alveolar","TrainingItems",1,9,109,66,NA,NA,NA,NA,NA,NA,NA,NA,NA,NA,23,FALSE,18,59.8458730886,NA,"American English","VSH_Exp2","2016_Mar_03_1205",NA
"Recordings/papa.wav","no","p","p","a","yes","a","papa","Training","bilabial","TrainingItems",1,10,110,25,NA,NA,NA,NA,NA,NA,NA,NA,NA,NA,23,FALSE,18,59.8458730886,NA,"American English","VSH_Exp2","2016_Mar_03_1205",NA
"Recordings/fasa.wav","no","f","s","a","no","a","fasa","Training","bilabial","TrainingItems",1,11,111,33,NA,NA,NA,NA,NA,NA,NA,NA,NA,NA,23,FALSE,18,59.8458730886,NA,"American English","VSH_Exp2","2016_Mar_03_1205",NA
"Recordings/daba.wav","yes","d","b","a","yes","a","daba","Training","alveolar","TrainingItems",1,12,112,51,NA,NA,NA,NA,NA,NA,NA,NA,NA,NA,23,FALSE,18,59.8458730886,NA,"American English","VSH_Exp2","2016_Mar_03_1205",NA
"Recordings/sifi.wav","no","s","f","i","no","i","sifi","Training","alveolar","TrainingItems",1,13,113,41,NA,NA,NA,NA,NA,NA,NA,NA,NA,NA,23,FALSE,18,59.8458730886,NA,"American English","VSH_Exp2","2016_Mar_03_1205",NA
"Recordings/sasi.wav","no","s","s","a","no","i","sasi","Training","alveolar","TrainingItems",1,14,114,81,NA,NA,NA,NA,NA,NA,NA,NA,NA,NA,23,FALSE,18,59.8458730886,NA,"American English","VSH_Exp2","2016_Mar_03_1205",NA
"Recordings/sisa.wav","no","s","s","i","no","a","sisa","Training","alveolar","TrainingItems",1,15,115,59,NA,NA,NA,NA,NA,NA,NA,NA,NA,NA,23,FALSE,18,59.8458730886,NA,"American English","VSH_Exp2","2016_Mar_03_1205",NA
"Recordings/dibu.wav","yes","d","b","i","yes","u","dibu","Training","alveolar","TrainingItems",1,16,116,91,NA,NA,NA,NA,NA,NA,NA,NA,NA,NA,23,FALSE,18,59.8458730886,NA,"American English","VSH_Exp2","2016_Mar_03_1205",NA
"Recordings/fufa.wav","no","f","f","u","no","a","fufa","Training","bilabial","TrainingItems",1,17,117,34,NA,NA,NA,NA,NA,NA,NA,NA,NA,NA,23,FALSE,18,59.8458730886,NA,"American English","VSH_Exp2","2016_Mar_03_1205",NA
"Recordings/tuta.wav","no","t","t","u","yes","a","tuta","Training","alveolar","TrainingItems",1,18,118,32,NA,NA,NA,NA,NA,NA,NA,NA,NA,NA,23,FALSE,18,59.8458730886,NA,"American English","VSH_Exp2","2016_Mar_03_1205",NA
"Recordings/patu.wav","no","p","t","a","yes","u","patu","Training","bilabial","TrainingItems",1,19,119,87,NA,NA,NA,NA,NA,NA,NA,NA,NA,NA,23,FALSE,18,59.8458730886,NA,"American English","VSH_Exp2","2016_Mar_03_1205",NA
"Recordings/zazu.wav","yes","z","z","a","no","u","zazu","Training","alveolar","TrainingItems",1,20,120,74,NA,NA,NA,NA,NA,NA,NA,NA,NA,NA,23,FALSE,18,59.8458730886,NA,"American English","VSH_Exp2","2016_Mar_03_1205",NA
"Recordings/pipa.wav","no","p","p","i","yes","a","pipa","Training","bilabial","TrainingItems",1,21,121,57,NA,NA,NA,NA,NA,NA,NA,NA,NA,NA,23,FALSE,18,59.8458730886,NA,"American English","VSH_Exp2","2016_Mar_03_1205",NA
"Recordings/fisi.wav","no","f","s","i","no","i","fisi","Training","bilabial","TrainingItems",1,22,122,83,NA,NA,NA,NA,NA,NA,NA,NA,NA,NA,23,FALSE,18,59.8458730886,NA,"American English","VSH_Exp2","2016_Mar_03_1205",NA
"Recordings/tipu.wav","no","t","p","i","yes","u","tipu","Training","alveolar","TrainingItems",1,23,123,65,NA,NA,NA,NA,NA,NA,NA,NA,NA,NA,23,FALSE,18,59.8458730886,NA,"American English","VSH_Exp2","2016_Mar_03_1205",NA
"Recordings/tatu.wav","no","t","t","a","yes","u","tatu","Training","alveolar","TrainingItems",1,24,124,96,NA,NA,NA,NA,NA,NA,NA,NA,NA,NA,23,FALSE,18,59.8458730886,NA,"American English","VSH_Exp2","2016_Mar_03_1205",NA
"Recordings/tita.wav","no","t","t","i","yes","a","tita","Training","alveolar","TrainingItems",1,25,125,35,NA,NA,NA,NA,NA,NA,NA,NA,NA,NA,23,FALSE,18,59.8458730886,NA,"American English","VSH_Exp2","2016_Mar_03_1205",NA
"Recordings/dubu.wav","yes","d","b","u","yes","u","dubu","Training","alveolar","TrainingItems",1,26,126,60,NA,NA,NA,NA,NA,NA,NA,NA,NA,NA,23,FALSE,18,59.8458730886,NA,"American English","VSH_Exp2","2016_Mar_03_1205",NA
"Recordings/bibi.wav","yes","b","b","i","yes","i","bibi","Training","bilabial","TrainingItems",1,27,127,42,NA,NA,NA,NA,NA,NA,NA,NA,NA,NA,23,FALSE,18,59.8458730886,NA,"American English","VSH_Exp2","2016_Mar_03_1205",NA
"Recordings/fifi.wav","no","f","f","i","no","i","fifi","Training","bilabial","TrainingItems",1,28,128,63,NA,NA,NA,NA,NA,NA,NA,NA,NA,NA,23,FALSE,18,59.8458730886,NA,"American English","VSH_Exp2","2016_Mar_03_1205",NA
"Recordings/bubi.wav","yes","b","b","u","yes","i","bubi","Training","bilabial","TrainingItems",1,29,129,6,NA,NA,NA,NA,NA,NA,NA,NA,NA,NA,23,FALSE,18,59.8458730886,NA,"American English","VSH_Exp2","2016_Mar_03_1205",NA
"Recordings/susi.wav","no","s","s","u","no","i","susi","Training","alveolar","TrainingItems",1,30,130,53,NA,NA,NA,NA,NA,NA,NA,NA,NA,NA,23,FALSE,18,59.8458730886,NA,"American English","VSH_Exp2","2016_Mar_03_1205",NA
"Recordings/pupi.wav","no","p","p","u","yes","i","pupi","Training","bilabial","TrainingItems",1,31,131,95,NA,NA,NA,NA,NA,NA,NA,NA,NA,NA,23,FALSE,18,59.8458730886,NA,"American English","VSH_Exp2","2016_Mar_03_1205",NA
"Recordings/tupu.wav","no","t","p","u","yes","u","tupu","Training","alveolar","TrainingItems",1,32,132,79,NA,NA,NA,NA,NA,NA,NA,NA,NA,NA,23,FALSE,18,59.8458730886,NA,"American English","VSH_Exp2","2016_Mar_03_1205",NA
"Recordings/dubi.wav","yes","d","b","u","yes","i","dubi","Training","alveolar","TrainingItems",1,33,133,68,NA,NA,NA,NA,NA,NA,NA,NA,NA,NA,23,FALSE,18,59.8458730886,NA,"American English","VSH_Exp2","2016_Mar_03_1205",NA
"Recordings/fasi.wav","no","f","s","a","no","i","fasi","Training","bilabial","TrainingItems",1,34,134,23,NA,NA,NA,NA,NA,NA,NA,NA,NA,NA,23,FALSE,18,59.8458730886,NA,"American English","VSH_Exp2","2016_Mar_03_1205",NA
"Recordings/tipi.wav","no","t","p","i","yes","i","tipi","Training","alveolar","TrainingItems",1,35,135,49,NA,NA,NA,NA,NA,NA,NA,NA,NA,NA,23,FALSE,18,59.8458730886,NA,"American English","VSH_Exp2","2016_Mar_03_1205",NA
"Recordings/bibu.wav","yes","b","b","i","yes","u","bibu","Training","bilabial","TrainingItems",1,36,136,22,NA,NA,NA,NA,NA,NA,NA,NA,NA,NA,23,FALSE,18,59.8458730886,NA,"American English","VSH_Exp2","2016_Mar_03_1205",NA
"Recordings/zizi.wav","yes","z","z","i","no","i","zizi","Training","alveolar","TrainingItems",1,37,137,43,NA,NA,NA,NA,NA,NA,NA,NA,NA,NA,23,FALSE,18,59.8458730886,NA,"American English","VSH_Exp2","2016_Mar_03_1205",NA
"Recordings/piti.wav","no","p","t","i","yes","i","piti","Training","bilabial","TrainingItems",1,38,138,82,NA,NA,NA,NA,NA,NA,NA,NA,NA,NA,23,FALSE,18,59.8458730886,NA,"American English","VSH_Exp2","2016_Mar_03_1205",NA
"Recordings/budu.wav","yes","b","d","u","yes","u","budu","Training","bilabial","TrainingItems",1,39,139,45,NA,NA,NA,NA,NA,NA,NA,NA,NA,NA,23,FALSE,18,59.8458730886,NA,"American English","VSH_Exp2","2016_Mar_03_1205",NA
"Recordings/dadu.wav","yes","d","d","a","yes","u","dadu","Training","alveolar","TrainingItems",1,40,140,78,NA,NA,NA,NA,NA,NA,NA,NA,NA,NA,23,FALSE,18,59.8458730886,NA,"American English","VSH_Exp2","2016_Mar_03_1205",NA
"Recordings/zazi.wav","yes","z","z","a","no","i","zazi","Training","alveolar","TrainingItems",1,41,141,38,NA,NA,NA,NA,NA,NA,NA,NA,NA,NA,23,FALSE,18,59.8458730886,NA,"American English","VSH_Exp2","2016_Mar_03_1205",NA
"Recordings/fufu.wav","no","f","f","u","no","u","fufu","Training","bilabial","TrainingItems",1,42,142,8,NA,NA,NA,NA,NA,NA,NA,NA,NA,NA,23,FALSE,18,59.8458730886,NA,"American English","VSH_Exp2","2016_Mar_03_1205",NA
"Recordings/tapu.wav","no","t","p","a","yes","u","tapu","Training","alveolar","TrainingItems",1,43,143,26,NA,NA,NA,NA,NA,NA,NA,NA,NA,NA,23,FALSE,18,59.8458730886,NA,"American English","VSH_Exp2","2016_Mar_03_1205",NA
"Recordings/zuza.wav","yes","z","z","u","no","a","zuza","Training","alveolar","TrainingItems",1,44,144,31,NA,NA,NA,NA,NA,NA,NA,NA,NA,NA,23,FALSE,18,59.8458730886,NA,"American English","VSH_Exp2","2016_Mar_03_1205",NA
"Recordings/biba.wav","yes","b","b","i","yes","a","biba","Training","bilabial","TrainingItems",1,45,145,18,NA,NA,NA,NA,NA,NA,NA,NA,NA,NA,23,FALSE,18,59.8458730886,NA,"American English","VSH_Exp2","2016_Mar_03_1205",NA
"Recordings/dida.wav","yes","d","d","i","yes","a","dida","Training","alveolar","TrainingItems",1,46,146,77,NA,NA,NA,NA,NA,NA,NA,NA,NA,NA,23,FALSE,18,59.8458730886,NA,"American English","VSH_Exp2","2016_Mar_03_1205",NA
"Recordings/putu.wav","no","p","t","u","yes","u","putu","Training","bilabial","TrainingItems",1,47,147,84,NA,NA,NA,NA,NA,NA,NA,NA,NA,NA,23,FALSE,18,59.8458730886,NA,"American English","VSH_Exp2","2016_Mar_03_1205",NA
"Recordings/tuti.wav","no","t","t","u","yes","i","tuti","Training","alveolar","TrainingItems",1,48,148,56,NA,NA,NA,NA,NA,NA,NA,NA,NA,NA,23,FALSE,18,59.8458730886,NA,"American English","VSH_Exp2","2016_Mar_03_1205",NA
"Recordings/vavu.wav","yes","v","v","a","no","u","vavu","Training","bilabial","TrainingItems",1,49,149,92,NA,NA,NA,NA,NA,NA,NA,NA,NA,NA,23,FALSE,18,59.8458730886,NA,"American English","VSH_Exp2","2016_Mar_03_1205",NA
"Recordings/ziza.wav","yes","z","z","i","no","a","ziza","Training","alveolar","TrainingItems",1,50,150,75,NA,NA,NA,NA,NA,NA,NA,NA,NA,NA,23,FALSE,18,59.8458730886,NA,"American English","VSH_Exp2","2016_Mar_03_1205",NA
"Recordings/pipu.wav","no","p","p","i","yes","u","pipu","Training","bilabial","TrainingItems",1,51,151,27,NA,NA,NA,NA,NA,NA,NA,NA,NA,NA,23,FALSE,18,59.8458730886,NA,"American English","VSH_Exp2","2016_Mar_03_1205",NA
"Recordings/papi.wav","no","p","p","a","yes","i","papi","Training","bilabial","TrainingItems",1,52,152,67,NA,NA,NA,NA,NA,NA,NA,NA,NA,NA,23,FALSE,18,59.8458730886,NA,"American English","VSH_Exp2","2016_Mar_03_1205",NA
"Recordings/fusa.wav","no","f","s","u","no","a","fusa","Training","bilabial","TrainingItems",1,53,153,58,NA,NA,NA,NA,NA,NA,NA,NA,NA,NA,23,FALSE,18,59.8458730886,NA,"American English","VSH_Exp2","2016_Mar_03_1205",NA
"Recordings/vuva.wav","yes","v","v","u","no","a","vuva","Training","bilabial","TrainingItems",1,54,154,13,NA,NA,NA,NA,NA,NA,NA,NA,NA,NA,23,FALSE,18,59.8458730886,NA,"American English","VSH_Exp2","2016_Mar_03_1205",NA
"Recordings/tapi.wav","no","t","p","a","yes","i","tapi","Training","alveolar","TrainingItems",1,55,155,20,NA,NA,NA,NA,NA,NA,NA,NA,NA,NA,23,FALSE,18,59.8458730886,NA,"American English","VSH_Exp2","2016_Mar_03_1205",NA
"Recordings/fusu.wav","no","f","s","u","no","u","fusu","Training","bilabial","TrainingItems",1,56,156,76,NA,NA,NA,NA,NA,NA,NA,NA,NA,NA,23,FALSE,18,59.8458730886,NA,"American English","VSH_Exp2","2016_Mar_03_1205",NA
"Recordings/buda.wav","yes","b","d","u","yes","a","buda","Training","bilabial","TrainingItems",1,57,157,89,NA,NA,NA,NA,NA,NA,NA,NA,NA,NA,23,FALSE,18,59.8458730886,NA,"American English","VSH_Exp2","2016_Mar_03_1205",NA
"Recordings/titu.wav","no","t","t","i","yes","u","titu","Training","alveolar","TrainingItems",1,58,158,55,NA,NA,NA,NA,NA,NA,NA,NA,NA,NA,23,FALSE,18,59.8458730886,NA,"American English","VSH_Exp2","2016_Mar_03_1205",NA
"Recordings/zizu.wav","yes","z","z","i","no","u","zizu","Training","alveolar","TrainingItems",1,59,159,69,NA,NA,NA,NA,NA,NA,NA,NA,NA,NA,23,FALSE,18,59.8458730886,NA,"American English","VSH_Exp2","2016_Mar_03_1205",NA
"Recordings/tata.wav","no","t","t","a","yes","a","tata","Training","alveolar","TrainingItems",1,60,160,16,NA,NA,NA,NA,NA,NA,NA,NA,NA,NA,23,FALSE,18,59.8458730886,NA,"American English","VSH_Exp2","2016_Mar_03_1205",NA
"Recordings/safi.wav","no","s","f","a","no","i","safi","Training","alveolar","TrainingItems",1,61,161,14,NA,NA,NA,NA,NA,NA,NA,NA,NA,NA,23,FALSE,18,59.8458730886,NA,"American English","VSH_Exp2","2016_Mar_03_1205",NA
"Recordings/tati.wav","no","t","t","a","yes","i","tati","Training","alveolar","TrainingItems",1,62,162,0,NA,NA,NA,NA,NA,NA,NA,NA,NA,NA,23,FALSE,18,59.8458730886,NA,"American English","VSH_Exp2","2016_Mar_03_1205",NA
"Recordings/duba.wav","yes","d","b","u","yes","a","duba","Training","alveolar","TrainingItems",1,63,163,48,NA,NA,NA,NA,NA,NA,NA,NA,NA,NA,23,FALSE,18,59.8458730886,NA,"American English","VSH_Exp2","2016_Mar_03_1205",NA
"Recordings/fasu.wav","no","f","s","a","no","u","fasu","Training","bilabial","TrainingItems",1,64,164,70,NA,NA,NA,NA,NA,NA,NA,NA,NA,NA,23,FALSE,18,59.8458730886,NA,"American English","VSH_Exp2","2016_Mar_03_1205",NA
"Recordings/bidu.wav","yes","b","d","i","yes","u","bidu","Training","bilabial","TrainingItems",1,65,165,17,NA,NA,NA,NA,NA,NA,NA,NA,NA,NA,23,FALSE,18,59.8458730886,NA,"American English","VSH_Exp2","2016_Mar_03_1205",NA
"Recordings/duda.wav","yes","d","d","u","yes","a","duda","Training","alveolar","TrainingItems",1,66,166,54,NA,NA,NA,NA,NA,NA,NA,NA,NA,NA,23,FALSE,18,59.8458730886,NA,"American English","VSH_Exp2","2016_Mar_03_1205",NA
"Recordings/dibi.wav","yes","d","b","i","yes","i","dibi","Training","alveolar","TrainingItems",1,67,167,39,NA,NA,NA,NA,NA,NA,NA,NA,NA,NA,23,FALSE,18,59.8458730886,NA,"American English","VSH_Exp2","2016_Mar_03_1205",NA
"Recordings/pupu.wav","no","p","p","u","yes","u","pupu","Training","bilabial","TrainingItems",1,68,168,12,NA,NA,NA,NA,NA,NA,NA,NA,NA,NA,23,FALSE,18,59.8458730886,NA,"American English","VSH_Exp2","2016_Mar_03_1205",NA
"Recordings/vuvi.wav","yes","v","v","u","no","i","vuvi","Training","bilabial","TrainingItems",1,69,169,46,NA,NA,NA,NA,NA,NA,NA,NA,NA,NA,23,FALSE,18,59.8458730886,NA,"American English","VSH_Exp2","2016_Mar_03_1205",NA
"Recordings/sisu.wav","no","s","s","i","no","u","sisu","Training","alveolar","TrainingItems",1,70,170,28,NA,NA,NA,NA,NA,NA,NA,NA,NA,NA,23,FALSE,18,59.8458730886,NA,"American English","VSH_Exp2","2016_Mar_03_1205",NA
"Recordings/fisa.wav","no","f","s","i","no","a","fisa","Training","bilabial","TrainingItems",1,71,171,99,NA,NA,NA,NA,NA,NA,NA,NA,NA,NA,23,FALSE,18,59.8458730886,NA,"American English","VSH_Exp2","2016_Mar_03_1205",NA
"Recordings/viva.wav","yes","v","v","i","no","a","viva","Training","bilabial","TrainingItems",1,72,172,90,NA,NA,NA,NA,NA,NA,NA,NA,NA,NA,23,FALSE,18,59.8458730886,NA,"American English","VSH_Exp2","2016_Mar_03_1205",NA
"Recordings/fufi.wav","no","f","f","u","no","i","fufi","Training","bilabial","TrainingItems",1,73,173,52,NA,NA,NA,NA,NA,NA,NA,NA,NA,NA,23,FALSE,18,59.8458730886,NA,"American English","VSH_Exp2","2016_Mar_03_1205",NA
"Recordings/bada.wav","yes","b","d","a","yes","a","bada","Training","bilabial","TrainingItems",1,74,174,3,NA,NA,NA,NA,NA,NA,NA,NA,NA,NA,23,FALSE,18,59.8458730886,NA,"American English","VSH_Exp2","2016_Mar_03_1205",NA
"Recordings/sisi.wav","no","s","s","i","no","i","sisi","Training","alveolar","TrainingItems",1,75,175,62,NA,NA,NA,NA,NA,NA,NA,NA,NA,NA,23,FALSE,18,59.8458730886,NA,"American English","VSH_Exp2","2016_Mar_03_1205",NA
"Recordings/sufa.wav","no","s","f","u","no","a","sufa","Training","alveolar","TrainingItems",1,76,176,71,NA,NA,NA,NA,NA,NA,NA,NA,NA,NA,23,FALSE,18,59.8458730886,NA,"American English","VSH_Exp2","2016_Mar_03_1205",NA
"Recordings/safa.wav","no","s","f","a","no","a","safa","Training","alveolar","TrainingItems",1,77,177,30,NA,NA,NA,NA,NA,NA,NA,NA,NA,NA,23,FALSE,18,59.8458730886,NA,"American English","VSH_Exp2","2016_Mar_03_1205",NA
"Recordings/vivu.wav","yes","v","v","i","no","u","vivu","Training","bilabial","TrainingItems",1,78,178,97,NA,NA,NA,NA,NA,NA,NA,NA,NA,NA,23,FALSE,18,59.8458730886,NA,"American English","VSH_Exp2","2016_Mar_03_1205",NA
"Recordings/dada.wav","yes","d","d","a","yes","a","dada","Training","alveolar","TrainingItems",1,79,179,11,NA,NA,NA,NA,NA,NA,NA,NA,NA,NA,23,FALSE,18,59.8458730886,NA,"American English","VSH_Exp2","2016_Mar_03_1205",NA
"Recordings/babu.wav","yes","b","b","a","yes","u","babu","Training","bilabial","TrainingItems",1,80,180,5,NA,NA,NA,NA,NA,NA,NA,NA,NA,NA,23,FALSE,18,59.8458730886,NA,"American English","VSH_Exp2","2016_Mar_03_1205",NA
"Recordings/didi.wav","yes","d","d","i","yes","i","didi","Training","alveolar","TrainingItems",1,81,181,80,NA,NA,NA,NA,NA,NA,NA,NA,NA,NA,23,FALSE,18,59.8458730886,NA,"American English","VSH_Exp2","2016_Mar_03_1205",NA
"Recordings/titi.wav","no","t","t","i","yes","i","titi","Training","alveolar","TrainingItems",1,82,182,72,NA,NA,NA,NA,NA,NA,NA,NA,NA,NA,23,FALSE,18,59.8458730886,NA,"American English","VSH_Exp2","2016_Mar_03_1205",NA
"Recordings/fifu.wav","no","f","f","i","no","u","fifu","Training","bilabial","TrainingItems",1,83,183,44,NA,NA,NA,NA,NA,NA,NA,NA,NA,NA,23,FALSE,18,59.8458730886,NA,"American English","VSH_Exp2","2016_Mar_03_1205",NA
"Recordings/dabu.wav","yes","d","b","a","yes","u","dabu","Training","alveolar","TrainingItems",1,84,184,15,NA,NA,NA,NA,NA,NA,NA,NA,NA,NA,23,FALSE,18,59.8458730886,NA,"American English","VSH_Exp2","2016_Mar_03_1205",NA
"Recordings/tutu.wav","no","t","t","u","yes","u","tutu","Training","alveolar","TrainingItems",1,85,185,86,NA,NA,NA,NA,NA,NA,NA,NA,NA,NA,23,FALSE,18,59.8458730886,NA,"American English","VSH_Exp2","2016_Mar_03_1205",NA
"Recordings/diba.wav","yes","d","b","i","yes","a","diba","Training","alveolar","TrainingItems",1,86,186,85,NA,NA,NA,NA,NA,NA,NA,NA,NA,NA,23,FALSE,18,59.8458730886,NA,"American English","VSH_Exp2","2016_Mar_03_1205",NA
"Recordings/badi.wav","yes","b","d","a","yes","i","badi","Training","bilabial","TrainingItems",1,87,187,19,NA,NA,NA,NA,NA,NA,NA,NA,NA,NA,23,FALSE,18,59.8458730886,NA,"American English","VSH_Exp2","2016_Mar_03_1205",NA
"Recordings/dudi.wav","yes","d","d","u","yes","i","dudi","Training","alveolar","TrainingItems",1,88,188,94,NA,NA,NA,NA,NA,NA,NA,NA,NA,NA,23,FALSE,18,59.8458730886,NA,"American English","VSH_Exp2","2016_Mar_03_1205",NA
"Recordings/pata.wav","no","p","t","a","yes","a","pata","Training","bilabial","TrainingItems",1,89,189,73,NA,NA,NA,NA,NA,NA,NA,NA,NA,NA,23,FALSE,18,59.8458730886,NA,"American English","VSH_Exp2","2016_Mar_03_1205",NA
"Recordings/sifu.wav","no","s","f","i","no","u","sifu","Training","alveolar","TrainingItems",1,90,190,37,NA,NA,NA,NA,NA,NA,NA,NA,NA,NA,23,FALSE,18,59.8458730886,NA,"American English","VSH_Exp2","2016_Mar_03_1205",NA
"Recordings/vuvu.wav","yes","v","v","u","no","u","vuvu","Training","bilabial","TrainingItems",1,91,191,2,NA,NA,NA,NA,NA,NA,NA,NA,NA,NA,23,FALSE,18,59.8458730886,NA,"American English","VSH_Exp2","2016_Mar_03_1205",NA
"Recordings/tupa.wav","no","t","p","u","yes","a","tupa","Training","alveolar","TrainingItems",1,92,192,9,NA,NA,NA,NA,NA,NA,NA,NA,NA,NA,23,FALSE,18,59.8458730886,NA,"American English","VSH_Exp2","2016_Mar_03_1205",NA
"Recordings/vivi.wav","yes","v","v","i","no","i","vivi","Training","bilabial","TrainingItems",1,93,193,7,NA,NA,NA,NA,NA,NA,NA,NA,NA,NA,23,FALSE,18,59.8458730886,NA,"American English","VSH_Exp2","2016_Mar_03_1205",NA
"Recordings/fafa.wav","no","f","f","a","no","a","fafa","Training","bilabial","TrainingItems",1,94,194,88,NA,NA,NA,NA,NA,NA,NA,NA,NA,NA,23,FALSE,18,59.8458730886,NA,"American English","VSH_Exp2","2016_Mar_03_1205",NA
"Recordings/puti.wav","no","p","t","u","yes","i","puti","Training","bilabial","TrainingItems",1,95,195,47,NA,NA,NA,NA,NA,NA,NA,NA,NA,NA,23,FALSE,18,59.8458730886,NA,"American English","VSH_Exp2","2016_Mar_03_1205",NA
"Recordings/vava.wav","yes","v","v","a","no","a","vava","Training","bilabial","TrainingItems",1,96,196,64,NA,NA,NA,NA,NA,NA,NA,NA,NA,NA,23,FALSE,18,59.8458730886,NA,"American English","VSH_Exp2","2016_Mar_03_1205",NA
"Recordings/tipa.wav","no","t","p","i","yes","a","tipa","Training","alveolar","TrainingItems",1,97,197,61,NA,NA,NA,NA,NA,NA,NA,NA,NA,NA,23,FALSE,18,59.8458730886,NA,"American English","VSH_Exp2","2016_Mar_03_1205",NA
"Recordings/fusi.wav","no","f","s","u","no","i","fusi","Training","bilabial","TrainingItems",1,98,198,29,NA,NA,NA,NA,NA,NA,NA,NA,NA,NA,23,FALSE,18,59.8458730886,NA,"American English","VSH_Exp2","2016_Mar_03_1205",NA
"Recordings/baba.wav","yes","b","b","a","yes","a","baba","Training","bilabial","TrainingItems",1,99,199,21,NA,NA,NA,NA,NA,NA,NA,NA,NA,NA,23,FALSE,18,59.8458730886,NA,"American English","VSH_Exp2","2016_Mar_03_1205",NA
NA,NA,NA,NA,NA,NA,NA,NA,NA,NA,NA,NA,NA,NA,NA,NA,NA,NA,NA,NA,NA,"space",8.1108288765,NA,NA,23,FALSE,18,59.8458730886,NA,"American English","VSH_Exp2","2016_Mar_03_1205",NA
"Recordings/viba.wav","yes","v","b","i","no","a","viba","Controls","bilabial","VoicingControls",NA,NA,NA,NA,0,0,0,49,NA,NA,NA,NA,"Yes",5.325,23,FALSE,18,59.8458730886,NA,"American English","VSH_Exp2","2016_Mar_03_1205",NA
"Recordings/buba.wav","yes","b","b","u","yes","a","buba","Test","bilabial","NewWordTestStimuli",NA,NA,NA,NA,0,1,1,23,NA,NA,NA,NA,"Yes",1.387,23,FALSE,18,59.8458730886,NA,"American English","VSH_Exp2","2016_Mar_03_1205",NA
"Recordings/vavu.wav","yes","v","v","a","no","u","vavu","Test","bilabial","OldTestStimuli",NA,NA,NA,NA,0,2,2,2,NA,NA,NA,NA,"Yes",4.157,23,FALSE,18,59.8458730886,NA,"American English","VSH_Exp2","2016_Mar_03_1205",NA
"Recordings/vavi.wav","yes","v","v","a","no","i","vavi","Test","bilabial","NewWordTestStimuli",NA,NA,NA,NA,0,3,3,22,NA,NA,NA,NA,"Yes",3.738,23,FALSE,18,59.8458730886,NA,"American English","VSH_Exp2","2016_Mar_03_1205",NA
"Recordings/zifi.wav","yes","z","f","i","no","i","zifi","Controls","alveolar","StopControls",NA,NA,NA,NA,0,4,4,32,NA,NA,NA,NA,"No",2.738,23,FALSE,18,59.8458730886,NA,"American English","VSH_Exp2","2016_Mar_03_1205",NA
"Recordings/vuzi.wav","yes","v","z","u","no","i","vuzi","Test","bilabial","NewConsTestStimuli",NA,NA,NA,NA,0,5,5,14,NA,NA,NA,NA,"No",4.208,23,FALSE,18,59.8458730886,NA,"American English","VSH_Exp2","2016_Mar_03_1205",NA
"Recordings/vazi.wav","yes","v","z","a","no","i","vazi","Test","bilabial","NewConsTestStimuli",NA,NA,NA,NA,0,6,6,13,NA,NA,NA,NA,"No",2.771,23,FALSE,18,59.8458730886,NA,"American English","VSH_Exp2","2016_Mar_03_1205",NA
"Recordings/butu.wav","yes","b","t","u","yes","u","butu","Controls","bilabial","StopControls",NA,NA,NA,NA,0,7,7,31,NA,NA,NA,NA,"No",2.572,23,FALSE,18,59.8458730886,NA,"American English","VSH_Exp2","2016_Mar_03_1205",NA
"Recordings/vidu.wav","yes","v","d","i","no","u","vidu","Controls","bilabial","VoicingControls",NA,NA,NA,NA,0,8,8,47,NA,NA,NA,NA,"Yes",1.905,23,FALSE,18,59.8458730886,NA,"American English","VSH_Exp2","2016_Mar_03_1205",NA
"Recordings/vabi.wav","yes","v","b","a","no","i","vabi","Controls","bilabial","VoicingControls",NA,NA,NA,NA,0,9,9,40,NA,NA,NA,NA,"Yes",1.304,23,FALSE,18,59.8458730886,NA,"American English","VSH_Exp2","2016_Mar_03_1205",NA
"Recordings/bifa.wav","yes","b","f","i","yes","a","bifa","Controls","bilabial","NoPatternControls",NA,NA,NA,NA,0,10,10,53,NA,NA,NA,NA,"Yes",1.036,23,FALSE,18,59.8458730886,NA,"American English","VSH_Exp2","2016_Mar_03_1205",NA
"Recordings/bisi.wav","yes","b","s","i","yes","i","bisi","Controls","bilabial","NoPatternControls",NA,NA,NA,NA,0,11,11,55,NA,NA,NA,NA,"No",2.005,23,FALSE,18,59.8458730886,NA,"American English","VSH_Exp2","2016_Mar_03_1205",NA
"Recordings/fuvi.wav","no","f","v","u","no","i","fuvi","Controls","bilabial","StopControls",NA,NA,NA,NA,0,12,12,38,NA,NA,NA,NA,"No",1.705,23,FALSE,18,59.8458730886,NA,"American English","VSH_Exp2","2016_Mar_03_1205",NA
"Recordings/bupa.wav","yes","b","p","u","yes","a","bupa","Controls","bilabial","StopControls",NA,NA,NA,NA,0,13,13,35,NA,NA,NA,NA,"Yes",2.773,23,FALSE,18,59.8458730886,NA,"American English","VSH_Exp2","2016_Mar_03_1205",NA
"Recordings/vupu.wav","yes","v","p","u","no","u","vupu","Controls","bilabial","NoPatternControls",NA,NA,NA,NA,0,14,14,57,NA,NA,NA,NA,"Yes",2.305,23,FALSE,18,59.8458730886,NA,"American English","VSH_Exp2","2016_Mar_03_1205",NA
"Recordings/vazu.wav","yes","v","z","a","no","u","vazu","Test","bilabial","NewConsTestStimuli",NA,NA,NA,NA,0,15,15,16,NA,NA,NA,NA,"Yes",1.053,23,FALSE,18,59.8458730886,NA,"American English","VSH_Exp2","2016_Mar_03_1205",NA
"Recordings/didu.wav","yes","d","d","i","yes","u","didu","Test","alveolar","NewWordTestStimuli",NA,NA,NA,NA,0,16,16,28,NA,NA,NA,NA,"No",2.355,23,FALSE,18,59.8458730886,NA,"American English","VSH_Exp2","2016_Mar_03_1205",NA
"Recordings/buvi.wav","yes","b","v","u","yes","i","buvi","Controls","bilabial","VoicingControls",NA,NA,NA,NA,0,17,17,43,NA,NA,NA,NA,"Yes",2.821,23,FALSE,18,59.8458730886,NA,"American English","VSH_Exp2","2016_Mar_03_1205",NA
"Recordings/zivi.wav","yes","z","v","i","no","i","zivi","Test","alveolar","NewConsTestStimuli",NA,NA,NA,NA,0,18,18,19,NA,NA,NA,NA,"No",1.62,23,FALSE,18,59.8458730886,NA,"American English","VSH_Exp2","2016_Mar_03_1205",NA
"Recordings/bubi.wav","yes","b","b","u","yes","i","bubi","Test","bilabial","OldTestStimuli",NA,NA,NA,NA,0,19,19,6,NA,NA,NA,NA,"Yes",1.554,23,FALSE,18,59.8458730886,NA,"American English","VSH_Exp2","2016_Mar_03_1205",NA
"Recordings/zuvu.wav","yes","z","v","u","no","u","zuvu","Test","alveolar","NewConsTestStimuli",NA,NA,NA,NA,0,20,20,15,NA,NA,NA,NA,"Yes",2.806,23,FALSE,18,59.8458730886,NA,"American English","VSH_Exp2","2016_Mar_03_1205",NA
"Recordings/vati.wav","yes","v","t","a","no","i","vati","Controls","bilabial","NoPatternControls",NA,NA,NA,NA,0,21,21,59,NA,NA,NA,NA,"No",1.721,23,FALSE,18,59.8458730886,NA,"American English","VSH_Exp2","2016_Mar_03_1205",NA
"Recordings/sabi.wav","no","s","b","a","no","i","sabi","Controls","alveolar","NoPatternControls",NA,NA,NA,NA,0,22,22,54,NA,NA,NA,NA,"Yes",1.454,23,FALSE,18,59.8458730886,NA,"American English","VSH_Exp2","2016_Mar_03_1205",NA
"Recordings/buzu.wav","yes","b","z","u","yes","u","buzu","Controls","bilabial","VoicingControls",NA,NA,NA,NA,0,23,23,41,NA,NA,NA,NA,"No",1.57,23,FALSE,18,59.8458730886,NA,"American English","VSH_Exp2","2016_Mar_03_1205",NA
"Recordings/tatu.wav","no","t","t","a","yes","u","tatu","Test","alveolar","OldTestStimuli",NA,NA,NA,NA,0,24,24,5,NA,NA,NA,NA,"Yes",1.053,23,FALSE,18,59.8458730886,NA,"American English","VSH_Exp2","2016_Mar_03_1205",NA
"Recordings/bidi.wav","yes","b","d","i","yes","i","bidi","Test","bilabial","NewWordTestStimuli",NA,NA,NA,NA,0,25,25,25,NA,NA,NA,NA,"Yes",0.97,23,FALSE,18,59.8458730886,NA,"American English","VSH_Exp2","2016_Mar_03_1205",NA
"Recordings/daba.wav","yes","d","b","a","yes","a","daba","Test","alveolar","OldTestStimuli",NA,NA,NA,NA,0,26,26,4,NA,NA,NA,NA,"Yes",0.82,23,FALSE,18,59.8458730886,NA,"American English","VSH_Exp2","2016_Mar_03_1205",NA
"Recordings/babi.wav","yes","b","b","a","yes","i","babi","Test","bilabial","OldTestStimuli",NA,NA,NA,NA,0,27,27,8,NA,NA,NA,NA,"Yes",1.02,23,FALSE,18,59.8458730886,NA,"American English","VSH_Exp2","2016_Mar_03_1205",NA
"Recordings/vuzu.wav","yes","v","z","u","no","u","vuzu","Test","bilabial","NewConsTestStimuli",NA,NA,NA,NA,0,28,28,18,NA,NA,NA,NA,"No",6.025,23,FALSE,18,59.8458730886,NA,"American English","VSH_Exp2","2016_Mar_03_1205",NA
"Recordings/titi.wav","no","t","t","i","yes","i","titi","Test","alveolar","OldTestStimuli",NA,NA,NA,NA,0,29,29,9,NA,NA,NA,NA,"Yes",1.703,23,FALSE,18,59.8458730886,NA,"American English","VSH_Exp2","2016_Mar_03_1205",NA
"Recordings/bupi.wav","yes","b","p","u","yes","i","bupi","Controls","bilabial","StopControls",NA,NA,NA,NA,0,30,30,33,NA,NA,NA,NA,"No",1.753,23,FALSE,18,59.8458730886,NA,"American English","VSH_Exp2","2016_Mar_03_1205",NA
"Recordings/biza.wav","yes","b","z","i","yes","a","biza","Controls","bilabial","VoicingControls",NA,NA,NA,NA,0,31,31,46,NA,NA,NA,NA,"No",1.071,23,FALSE,18,59.8458730886,NA,"American English","VSH_Exp2","2016_Mar_03_1205",NA
"Recordings/vifa.wav","yes","v","f","i","no","a","vifa","Controls","bilabial","StopControls",NA,NA,NA,NA,0,32,32,39,NA,NA,NA,NA,"No",1.236,23,FALSE,18,59.8458730886,NA,"American English","VSH_Exp2","2016_Mar_03_1205",NA
"Recordings/sifa.wav","no","s","f","i","no","a","sifa","Test","alveolar","NewWordTestStimuli",NA,NA,NA,NA,0,33,33,20,NA,NA,NA,NA,"No",1.17,23,FALSE,18,59.8458730886,NA,"American English","VSH_Exp2","2016_Mar_03_1205",NA
"Recordings/zibi.wav","yes","z","b","i","no","i","zibi","Controls","alveolar","VoicingControls",NA,NA,NA,NA,0,34,34,42,NA,NA,NA,NA,"No",1.27,23,FALSE,18,59.8458730886,NA,"American English","VSH_Exp2","2016_Mar_03_1205",NA
"Recordings/pupu.wav","no","p","p","u","yes","u","pupu","Test","bilabial","OldTestStimuli",NA,NA,NA,NA,0,35,35,1,NA,NA,NA,NA,"Yes",1.07,23,FALSE,18,59.8458730886,NA,"American English","VSH_Exp2","2016_Mar_03_1205",NA
"Recordings/bita.wav","yes","b","t","i","yes","a","bita","Controls","bilabial","StopControls",NA,NA,NA,NA,0,36,36,36,NA,NA,NA,NA,"No",1.337,23,FALSE,18,59.8458730886,NA,"American English","VSH_Exp2","2016_Mar_03_1205",NA
"Recordings/badu.wav","yes","b","d","a","yes","u","badu","Test","bilabial","NewWordTestStimuli",NA,NA,NA,NA,0,37,37,21,NA,NA,NA,NA,"Yes",4.859,23,FALSE,18,59.8458730886,NA,"American English","VSH_Exp2","2016_Mar_03_1205",NA
"Recordings/fadu.wav","no","f","d","a","no","u","fadu","Controls","bilabial","NoPatternControls",NA,NA,NA,NA,0,38,38,58,NA,NA,NA,NA,"Yes",1.319,23,FALSE,18,59.8458730886,NA,"American English","VSH_Exp2","2016_Mar_03_1205",NA
"Recordings/zuva.wav","yes","z","v","u","no","a","zuva","Test","alveolar","NewConsTestStimuli",NA,NA,NA,NA,0,39,39,12,NA,NA,NA,NA,"No",11.9,23,FALSE,18,59.8458730886,NA,"American English","VSH_Exp2","2016_Mar_03_1205",NA
"Recordings/fisi.wav","no","f","s","i","no","i","fisi","Test","bilabial","OldTestStimuli",NA,NA,NA,NA,0,40,40,0,NA,NA,NA,NA,"No",2.42,23,FALSE,18,59.8458730886,NA,"American English","VSH_Exp2","2016_Mar_03_1205",NA
"Recordings/bufa.wav","yes","b","f","u","yes","a","bufa","Controls","bilabial","NoPatternControls",NA,NA,NA,NA,0,41,41,51,NA,NA,NA,NA,"Yes",1.571,23,FALSE,18,59.8458730886,NA,"American English","VSH_Exp2","2016_Mar_03_1205",NA
"Recordings/pupa.wav","no","p","p","u","yes","a","pupa","Test","bilabial","NewWordTestStimuli",NA,NA,NA,NA,0,42,42,24,NA,NA,NA,NA,"Yes",1.019,23,FALSE,18,59.8458730886,NA,"American English","VSH_Exp2","2016_Mar_03_1205",NA
"Recordings/vaza.wav","yes","v","z","a","no","a","vaza","Test","bilabial","NewConsTestStimuli",NA,NA,NA,NA,0,43,43,11,NA,NA,NA,NA,"No",4.474,23,FALSE,18,59.8458730886,NA,"American English","VSH_Exp2","2016_Mar_03_1205",NA
"Recordings/suvu.wav","no","s","v","u","no","u","suvu","Controls","alveolar","StopControls",NA,NA,NA,NA,0,44,44,34,NA,NA,NA,NA,"No",4.725,23,FALSE,18,59.8458730886,NA,"American English","VSH_Exp2","2016_Mar_03_1205",NA
"Recordings/vita.wav","yes","v","t","i","no","a","vita","Controls","bilabial","NoPatternControls",NA,NA,NA,NA,0,45,45,50,NA,NA,NA,NA,"No",5.459,23,FALSE,18,59.8458730886,NA,"American English","VSH_Exp2","2016_Mar_03_1205",NA
"Recordings/sasa.wav","no","s","s","a","no","a","sasa","Test","alveolar","NewWordTestStimuli",NA,NA,NA,NA,0,46,46,26,NA,NA,NA,NA,"No",1.354,23,FALSE,18,59.8458730886,NA,"American English","VSH_Exp2","2016_Mar_03_1205",NA
"Recordings/basu.wav","yes","b","s","a","yes","u","basu","Controls","bilabial","NoPatternControls",NA,NA,NA,NA,0,47,47,56,NA,NA,NA,NA,"No",4.074,23,FALSE,18,59.8458730886,NA,"American English","VSH_Exp2","2016_Mar_03_1205",NA
"Recordings/suta.wav","no","s","t","u","no","a","suta","Controls","alveolar","VoicingControls",NA,NA,NA,NA,0,48,48,44,NA,NA,NA,NA,"No",2.154,23,FALSE,18,59.8458730886,NA,"American English","VSH_Exp2","2016_Mar_03_1205",NA
"Recordings/fapa.wav","no","f","p","a","no","a","fapa","Controls","bilabial","VoicingControls",NA,NA,NA,NA,0,49,49,48,NA,NA,NA,NA,"Yes",2.588,23,FALSE,18,59.8458730886,NA,"American English","VSH_Exp2","2016_Mar_03_1205",NA
"Recordings/visu.wav","yes","v","s","i","no","u","visu","Controls","bilabial","StopControls",NA,NA,NA,NA,0,50,50,37,NA,NA,NA,NA,"No",2.722,23,FALSE,18,59.8458730886,NA,"American English","VSH_Exp2","2016_Mar_03_1205",NA
"Recordings/diba.wav","yes","d","b","i","yes","a","diba","Test","alveolar","OldTestStimuli",NA,NA,NA,NA,0,51,51,7,NA,NA,NA,NA,"Yes",1.153,23,FALSE,18,59.8458730886,NA,"American English","VSH_Exp2","2016_Mar_03_1205",NA
"Recordings/buva.wav","yes","b","v","u","yes","a","buva","Controls","bilabial","VoicingControls",NA,NA,NA,NA,0,52,52,45,NA,NA,NA,NA,"No",7.311,23,FALSE,18,59.8458730886,NA,"American English","VSH_Exp2","2016_Mar_03_1205",NA
"Recordings/zivu.wav","yes","z","v","i","no","u","zivu","Test","alveolar","NewConsTestStimuli",NA,NA,NA,NA,0,53,53,10,NA,NA,NA,NA,"No",1.82,23,FALSE,18,59.8458730886,NA,"American English","VSH_Exp2","2016_Mar_03_1205",NA
"Recordings/vafi.wav","yes","v","f","a","no","i","vafi","Controls","bilabial","StopControls",NA,NA,NA,NA,0,54,54,30,NA,NA,NA,NA,"No",1.12,23,FALSE,18,59.8458730886,NA,"American English","VSH_Exp2","2016_Mar_03_1205",NA
"Recordings/zapu.wav","yes","z","p","a","no","u","zapu","Controls","alveolar","NoPatternControls",NA,NA,NA,NA,0,55,55,52,NA,NA,NA,NA,"No",1.121,23,FALSE,18,59.8458730886,NA,"American English","VSH_Exp2","2016_Mar_03_1205",NA
"Recordings/pati.wav","no","p","t","a","yes","i","pati","Test","bilabial","NewWordTestStimuli",NA,NA,NA,NA,0,56,56,29,NA,NA,NA,NA,"No",1.438,23,FALSE,18,59.8458730886,NA,"American English","VSH_Exp2","2016_Mar_03_1205",NA
"Recordings/zavi.wav","yes","z","v","a","no","i","zavi","Test","alveolar","NewConsTestStimuli",NA,NA,NA,NA,0,57,57,17,NA,NA,NA,NA,"No",1.588,23,FALSE,18,59.8458730886,NA,"American English","VSH_Exp2","2016_Mar_03_1205",NA
"Recordings/fufu.wav","no","f","f","u","no","u","fufu","Test","bilabial","OldTestStimuli",NA,NA,NA,NA,0,58,58,3,NA,NA,NA,NA,"Yes",1.437,23,FALSE,18,59.8458730886,NA,"American English","VSH_Exp2","2016_Mar_03_1205",NA
"Recordings/susa.wav","no","s","s","u","no","a","susa","Test","alveolar","NewWordTestStimuli",NA,NA,NA,NA,0,59,59,27,NA,NA,NA,NA,"Yes",1.238,23,FALSE,18,59.8458730886,NA,"American English","VSH_Exp2","2016_Mar_03_1205",NA
