"SOUND","VOICING","SEGMENT","SEGMENT3","SEGMENT2","STOP","SEGMENT4","STIMULUS","GENERAL_TYPE","PLACE","TYPE","trials.thisRepN","trials.thisTrialN","trials.thisN","trials.thisIndex","trials_2.thisRepN","trials_2.thisTrialN","trials_2.thisN","trials_2.thisIndex","SpaceBar.keys","SpaceBar.rt","key_resp_2.keys","key_resp_2.rt","rating.response","rating.rt","participant","Gender","Age","frameRate","OtherLanguages","NativeLanguage","expName","date","X34"
NA,NA,NA,NA,NA,NA,NA,NA,NA,NA,NA,NA,NA,NA,NA,NA,NA,NA,NA,"space",69.7467339039,NA,NA,NA,NA,24,FALSE,18,59.9136642964,NA,"American English","VSH_Exp2","2016_Mar_03_1204",NA
"Recordings/fafa.wav","no","f","f","a","no","a","fafa","Training","bilabial","TrainingItems",0,0,0,73,NA,NA,NA,NA,NA,NA,NA,NA,NA,NA,24,FALSE,18,59.9136642964,NA,"American English","VSH_Exp2","2016_Mar_03_1204",NA
"Recordings/dudu.wav","yes","d","d","u","yes","u","dudu","Training","alveolar","TrainingItems",0,1,1,48,NA,NA,NA,NA,NA,NA,NA,NA,NA,NA,24,FALSE,18,59.9136642964,NA,"American English","VSH_Exp2","2016_Mar_03_1204",NA
"Recordings/sufa.wav","no","s","f","u","no","a","sufa","Training","alveolar","TrainingItems",0,2,2,60,NA,NA,NA,NA,NA,NA,NA,NA,NA,NA,24,FALSE,18,59.9136642964,NA,"American English","VSH_Exp2","2016_Mar_03_1204",NA
"Recordings/fufa.wav","no","f","f","u","no","a","fufa","Training","bilabial","TrainingItems",0,3,3,93,NA,NA,NA,NA,NA,NA,NA,NA,NA,NA,24,FALSE,18,59.9136642964,NA,"American English","VSH_Exp2","2016_Mar_03_1204",NA
"Recordings/vazu.wav","yes","v","z","a","no","u","vazu","Training","bilabial","TrainingItems",0,4,4,26,NA,NA,NA,NA,NA,NA,NA,NA,NA,NA,24,FALSE,18,59.9136642964,NA,"American English","VSH_Exp2","2016_Mar_03_1204",NA
"Recordings/ziva.wav","yes","z","v","i","no","a","ziva","Training","alveolar","TrainingItems",0,5,5,89,NA,NA,NA,NA,NA,NA,NA,NA,NA,NA,24,FALSE,18,59.9136642964,NA,"American English","VSH_Exp2","2016_Mar_03_1204",NA
"Recordings/zuvu.wav","yes","z","v","u","no","u","zuvu","Training","alveolar","TrainingItems",0,6,6,75,NA,NA,NA,NA,NA,NA,NA,NA,NA,NA,24,FALSE,18,59.9136642964,NA,"American English","VSH_Exp2","2016_Mar_03_1204",NA
"Recordings/pita.wav","no","p","t","i","yes","a","pita","Training","bilabial","TrainingItems",0,7,7,69,NA,NA,NA,NA,NA,NA,NA,NA,NA,NA,24,FALSE,18,59.9136642964,NA,"American English","VSH_Exp2","2016_Mar_03_1204",NA
"Recordings/tipa.wav","no","t","p","i","yes","a","tipa","Training","alveolar","TrainingItems",0,8,8,43,NA,NA,NA,NA,NA,NA,NA,NA,NA,NA,24,FALSE,18,59.9136642964,NA,"American English","VSH_Exp2","2016_Mar_03_1204",NA
"Recordings/fufu.wav","no","f","f","u","no","u","fufu","Training","bilabial","TrainingItems",0,9,9,97,NA,NA,NA,NA,NA,NA,NA,NA,NA,NA,24,FALSE,18,59.9136642964,NA,"American English","VSH_Exp2","2016_Mar_03_1204",NA
"Recordings/tupa.wav","no","t","p","u","yes","a","tupa","Training","alveolar","TrainingItems",0,10,10,42,NA,NA,NA,NA,NA,NA,NA,NA,NA,NA,24,FALSE,18,59.9136642964,NA,"American English","VSH_Exp2","2016_Mar_03_1204",NA
"Recordings/fisu.wav","no","f","s","i","no","u","fisu","Training","bilabial","TrainingItems",0,11,11,61,NA,NA,NA,NA,NA,NA,NA,NA,NA,NA,24,FALSE,18,59.9136642964,NA,"American English","VSH_Exp2","2016_Mar_03_1204",NA
"Recordings/vizi.wav","yes","v","z","i","no","i","vizi","Training","bilabial","TrainingItems",0,12,12,49,NA,NA,NA,NA,NA,NA,NA,NA,NA,NA,24,FALSE,18,59.9136642964,NA,"American English","VSH_Exp2","2016_Mar_03_1204",NA
"Recordings/tatu.wav","no","t","t","a","yes","u","tatu","Training","alveolar","TrainingItems",0,13,13,24,NA,NA,NA,NA,NA,NA,NA,NA,NA,NA,24,FALSE,18,59.9136642964,NA,"American English","VSH_Exp2","2016_Mar_03_1204",NA
"Recordings/sifu.wav","no","s","f","i","no","u","sifu","Training","alveolar","TrainingItems",0,14,14,2,NA,NA,NA,NA,NA,NA,NA,NA,NA,NA,24,FALSE,18,59.9136642964,NA,"American English","VSH_Exp2","2016_Mar_03_1204",NA
"Recordings/fasa.wav","no","f","s","a","no","a","fasa","Training","bilabial","TrainingItems",0,15,15,21,NA,NA,NA,NA,NA,NA,NA,NA,NA,NA,24,FALSE,18,59.9136642964,NA,"American English","VSH_Exp2","2016_Mar_03_1204",NA
"Recordings/ziza.wav","yes","z","z","i","no","a","ziza","Training","alveolar","TrainingItems",0,16,16,59,NA,NA,NA,NA,NA,NA,NA,NA,NA,NA,24,FALSE,18,59.9136642964,NA,"American English","VSH_Exp2","2016_Mar_03_1204",NA
"Recordings/zizu.wav","yes","z","z","i","no","u","zizu","Training","alveolar","TrainingItems",0,17,17,6,NA,NA,NA,NA,NA,NA,NA,NA,NA,NA,24,FALSE,18,59.9136642964,NA,"American English","VSH_Exp2","2016_Mar_03_1204",NA
"Recordings/dida.wav","yes","d","d","i","yes","a","dida","Training","alveolar","TrainingItems",0,18,18,95,NA,NA,NA,NA,NA,NA,NA,NA,NA,NA,24,FALSE,18,59.9136642964,NA,"American English","VSH_Exp2","2016_Mar_03_1204",NA
"Recordings/vuzu.wav","yes","v","z","u","no","u","vuzu","Training","bilabial","TrainingItems",0,19,19,64,NA,NA,NA,NA,NA,NA,NA,NA,NA,NA,24,FALSE,18,59.9136642964,NA,"American English","VSH_Exp2","2016_Mar_03_1204",NA
"Recordings/vuvi.wav","yes","v","v","u","no","i","vuvi","Training","bilabial","TrainingItems",0,20,20,44,NA,NA,NA,NA,NA,NA,NA,NA,NA,NA,24,FALSE,18,59.9136642964,NA,"American English","VSH_Exp2","2016_Mar_03_1204",NA
"Recordings/sasi.wav","no","s","s","a","no","i","sasi","Training","alveolar","TrainingItems",0,21,21,8,NA,NA,NA,NA,NA,NA,NA,NA,NA,NA,24,FALSE,18,59.9136642964,NA,"American English","VSH_Exp2","2016_Mar_03_1204",NA
"Recordings/puta.wav","no","p","t","u","yes","a","puta","Training","bilabial","TrainingItems",0,22,22,40,NA,NA,NA,NA,NA,NA,NA,NA,NA,NA,24,FALSE,18,59.9136642964,NA,"American English","VSH_Exp2","2016_Mar_03_1204",NA
"Recordings/sisa.wav","no","s","s","i","no","a","sisa","Training","alveolar","TrainingItems",0,23,23,57,NA,NA,NA,NA,NA,NA,NA,NA,NA,NA,24,FALSE,18,59.9136642964,NA,"American English","VSH_Exp2","2016_Mar_03_1204",NA
"Recordings/tapa.wav","no","t","p","a","yes","a","tapa","Training","alveolar","TrainingItems",0,24,24,34,NA,NA,NA,NA,NA,NA,NA,NA,NA,NA,24,FALSE,18,59.9136642964,NA,"American English","VSH_Exp2","2016_Mar_03_1204",NA
"Recordings/vava.wav","yes","v","v","a","no","a","vava","Training","bilabial","TrainingItems",0,25,25,82,NA,NA,NA,NA,NA,NA,NA,NA,NA,NA,24,FALSE,18,59.9136642964,NA,"American English","VSH_Exp2","2016_Mar_03_1204",NA
"Recordings/babi.wav","yes","b","b","a","yes","i","babi","Training","bilabial","TrainingItems",0,26,26,55,NA,NA,NA,NA,NA,NA,NA,NA,NA,NA,24,FALSE,18,59.9136642964,NA,"American English","VSH_Exp2","2016_Mar_03_1204",NA
"Recordings/bibi.wav","yes","b","b","i","yes","i","bibi","Training","bilabial","TrainingItems",0,27,27,96,NA,NA,NA,NA,NA,NA,NA,NA,NA,NA,24,FALSE,18,59.9136642964,NA,"American English","VSH_Exp2","2016_Mar_03_1204",NA
"Recordings/baba.wav","yes","b","b","a","yes","a","baba","Training","bilabial","TrainingItems",0,28,28,33,NA,NA,NA,NA,NA,NA,NA,NA,NA,NA,24,FALSE,18,59.9136642964,NA,"American English","VSH_Exp2","2016_Mar_03_1204",NA
"Recordings/zazu.wav","yes","z","z","a","no","u","zazu","Training","alveolar","TrainingItems",0,29,29,79,NA,NA,NA,NA,NA,NA,NA,NA,NA,NA,24,FALSE,18,59.9136642964,NA,"American English","VSH_Exp2","2016_Mar_03_1204",NA
"Recordings/fafi.wav","no","f","f","a","no","i","fafi","Training","bilabial","TrainingItems",0,30,30,25,NA,NA,NA,NA,NA,NA,NA,NA,NA,NA,24,FALSE,18,59.9136642964,NA,"American English","VSH_Exp2","2016_Mar_03_1204",NA
"Recordings/pipi.wav","no","p","p","i","yes","i","pipi","Training","bilabial","TrainingItems",0,31,31,4,NA,NA,NA,NA,NA,NA,NA,NA,NA,NA,24,FALSE,18,59.9136642964,NA,"American English","VSH_Exp2","2016_Mar_03_1204",NA
"Recordings/zuvi.wav","yes","z","v","u","no","i","zuvi","Training","alveolar","TrainingItems",0,32,32,52,NA,NA,NA,NA,NA,NA,NA,NA,NA,NA,24,FALSE,18,59.9136642964,NA,"American English","VSH_Exp2","2016_Mar_03_1204",NA
"Recordings/sasa.wav","no","s","s","a","no","a","sasa","Training","alveolar","TrainingItems",0,33,33,56,NA,NA,NA,NA,NA,NA,NA,NA,NA,NA,24,FALSE,18,59.9136642964,NA,"American English","VSH_Exp2","2016_Mar_03_1204",NA
"Recordings/tuta.wav","no","t","t","u","yes","a","tuta","Training","alveolar","TrainingItems",0,34,34,19,NA,NA,NA,NA,NA,NA,NA,NA,NA,NA,24,FALSE,18,59.9136642964,NA,"American English","VSH_Exp2","2016_Mar_03_1204",NA
"Recordings/viva.wav","yes","v","v","i","no","a","viva","Training","bilabial","TrainingItems",0,35,35,1,NA,NA,NA,NA,NA,NA,NA,NA,NA,NA,24,FALSE,18,59.9136642964,NA,"American English","VSH_Exp2","2016_Mar_03_1204",NA
"Recordings/tita.wav","no","t","t","i","yes","a","tita","Training","alveolar","TrainingItems",0,36,36,78,NA,NA,NA,NA,NA,NA,NA,NA,NA,NA,24,FALSE,18,59.9136642964,NA,"American English","VSH_Exp2","2016_Mar_03_1204",NA
"Recordings/fisa.wav","no","f","s","i","no","a","fisa","Training","bilabial","TrainingItems",0,37,37,85,NA,NA,NA,NA,NA,NA,NA,NA,NA,NA,24,FALSE,18,59.9136642964,NA,"American English","VSH_Exp2","2016_Mar_03_1204",NA
"Recordings/fasu.wav","no","f","s","a","no","u","fasu","Training","bilabial","TrainingItems",0,38,38,87,NA,NA,NA,NA,NA,NA,NA,NA,NA,NA,24,FALSE,18,59.9136642964,NA,"American English","VSH_Exp2","2016_Mar_03_1204",NA
"Recordings/papi.wav","no","p","p","a","yes","i","papi","Training","bilabial","TrainingItems",0,39,39,28,NA,NA,NA,NA,NA,NA,NA,NA,NA,NA,24,FALSE,18,59.9136642964,NA,"American English","VSH_Exp2","2016_Mar_03_1204",NA
"Recordings/dada.wav","yes","d","d","a","yes","a","dada","Training","alveolar","TrainingItems",0,40,40,68,NA,NA,NA,NA,NA,NA,NA,NA,NA,NA,24,FALSE,18,59.9136642964,NA,"American English","VSH_Exp2","2016_Mar_03_1204",NA
"Recordings/dudi.wav","yes","d","d","u","yes","i","dudi","Training","alveolar","TrainingItems",0,41,41,63,NA,NA,NA,NA,NA,NA,NA,NA,NA,NA,24,FALSE,18,59.9136642964,NA,"American English","VSH_Exp2","2016_Mar_03_1204",NA
"Recordings/pupu.wav","no","p","p","u","yes","u","pupu","Training","bilabial","TrainingItems",0,42,42,41,NA,NA,NA,NA,NA,NA,NA,NA,NA,NA,24,FALSE,18,59.9136642964,NA,"American English","VSH_Exp2","2016_Mar_03_1204",NA
"Recordings/pipu.wav","no","p","p","i","yes","u","pipu","Training","bilabial","TrainingItems",0,43,43,37,NA,NA,NA,NA,NA,NA,NA,NA,NA,NA,24,FALSE,18,59.9136642964,NA,"American English","VSH_Exp2","2016_Mar_03_1204",NA
"Recordings/babu.wav","yes","b","b","a","yes","u","babu","Training","bilabial","TrainingItems",0,44,44,18,NA,NA,NA,NA,NA,NA,NA,NA,NA,NA,24,FALSE,18,59.9136642964,NA,"American English","VSH_Exp2","2016_Mar_03_1204",NA
"Recordings/tati.wav","no","t","t","a","yes","i","tati","Training","alveolar","TrainingItems",0,45,45,29,NA,NA,NA,NA,NA,NA,NA,NA,NA,NA,24,FALSE,18,59.9136642964,NA,"American English","VSH_Exp2","2016_Mar_03_1204",NA
"Recordings/susa.wav","no","s","s","u","no","a","susa","Training","alveolar","TrainingItems",0,46,46,88,NA,NA,NA,NA,NA,NA,NA,NA,NA,NA,24,FALSE,18,59.9136642964,NA,"American English","VSH_Exp2","2016_Mar_03_1204",NA
"Recordings/tata.wav","no","t","t","a","yes","a","tata","Training","alveolar","TrainingItems",0,47,47,20,NA,NA,NA,NA,NA,NA,NA,NA,NA,NA,24,FALSE,18,59.9136642964,NA,"American English","VSH_Exp2","2016_Mar_03_1204",NA
"Recordings/pipa.wav","no","p","p","i","yes","a","pipa","Training","bilabial","TrainingItems",0,48,48,65,NA,NA,NA,NA,NA,NA,NA,NA,NA,NA,24,FALSE,18,59.9136642964,NA,"American English","VSH_Exp2","2016_Mar_03_1204",NA
"Recordings/vavu.wav","yes","v","v","a","no","u","vavu","Training","bilabial","TrainingItems",0,49,49,99,NA,NA,NA,NA,NA,NA,NA,NA,NA,NA,24,FALSE,18,59.9136642964,NA,"American English","VSH_Exp2","2016_Mar_03_1204",NA
"Recordings/zuzi.wav","yes","z","z","u","no","i","zuzi","Training","alveolar","TrainingItems",0,50,50,46,NA,NA,NA,NA,NA,NA,NA,NA,NA,NA,24,FALSE,18,59.9136642964,NA,"American English","VSH_Exp2","2016_Mar_03_1204",NA
"Recordings/patu.wav","no","p","t","a","yes","u","patu","Training","bilabial","TrainingItems",0,51,51,92,NA,NA,NA,NA,NA,NA,NA,NA,NA,NA,24,FALSE,18,59.9136642964,NA,"American English","VSH_Exp2","2016_Mar_03_1204",NA
"Recordings/pata.wav","no","p","t","a","yes","a","pata","Training","bilabial","TrainingItems",0,52,52,70,NA,NA,NA,NA,NA,NA,NA,NA,NA,NA,24,FALSE,18,59.9136642964,NA,"American English","VSH_Exp2","2016_Mar_03_1204",NA
"Recordings/zazi.wav","yes","z","z","a","no","i","zazi","Training","alveolar","TrainingItems",0,53,53,81,NA,NA,NA,NA,NA,NA,NA,NA,NA,NA,24,FALSE,18,59.9136642964,NA,"American English","VSH_Exp2","2016_Mar_03_1204",NA
"Recordings/vazi.wav","yes","v","z","a","no","i","vazi","Training","bilabial","TrainingItems",0,54,54,94,NA,NA,NA,NA,NA,NA,NA,NA,NA,NA,24,FALSE,18,59.9136642964,NA,"American English","VSH_Exp2","2016_Mar_03_1204",NA
"Recordings/viza.wav","yes","v","z","i","no","a","viza","Training","bilabial","TrainingItems",0,55,55,47,NA,NA,NA,NA,NA,NA,NA,NA,NA,NA,24,FALSE,18,59.9136642964,NA,"American English","VSH_Exp2","2016_Mar_03_1204",NA
"Recordings/papu.wav","no","p","p","a","yes","u","papu","Training","bilabial","TrainingItems",0,56,56,23,NA,NA,NA,NA,NA,NA,NA,NA,NA,NA,24,FALSE,18,59.9136642964,NA,"American English","VSH_Exp2","2016_Mar_03_1204",NA
"Recordings/fifu.wav","no","f","f","i","no","u","fifu","Training","bilabial","TrainingItems",0,57,57,76,NA,NA,NA,NA,NA,NA,NA,NA,NA,NA,24,FALSE,18,59.9136642964,NA,"American English","VSH_Exp2","2016_Mar_03_1204",NA
"Recordings/tupi.wav","no","t","p","u","yes","i","tupi","Training","alveolar","TrainingItems",0,58,58,50,NA,NA,NA,NA,NA,NA,NA,NA,NA,NA,24,FALSE,18,59.9136642964,NA,"American English","VSH_Exp2","2016_Mar_03_1204",NA
"Recordings/tipi.wav","no","t","p","i","yes","i","tipi","Training","alveolar","TrainingItems",0,59,59,35,NA,NA,NA,NA,NA,NA,NA,NA,NA,NA,24,FALSE,18,59.9136642964,NA,"American English","VSH_Exp2","2016_Mar_03_1204",NA
"Recordings/vivu.wav","yes","v","v","i","no","u","vivu","Training","bilabial","TrainingItems",0,60,60,71,NA,NA,NA,NA,NA,NA,NA,NA,NA,NA,24,FALSE,18,59.9136642964,NA,"American English","VSH_Exp2","2016_Mar_03_1204",NA
"Recordings/tapi.wav","no","t","p","a","yes","i","tapi","Training","alveolar","TrainingItems",0,61,61,17,NA,NA,NA,NA,NA,NA,NA,NA,NA,NA,24,FALSE,18,59.9136642964,NA,"American English","VSH_Exp2","2016_Mar_03_1204",NA
"Recordings/fusa.wav","no","f","s","u","no","a","fusa","Training","bilabial","TrainingItems",0,62,62,31,NA,NA,NA,NA,NA,NA,NA,NA,NA,NA,24,FALSE,18,59.9136642964,NA,"American English","VSH_Exp2","2016_Mar_03_1204",NA
"Recordings/didu.wav","yes","d","d","i","yes","u","didu","Training","alveolar","TrainingItems",0,63,63,90,NA,NA,NA,NA,NA,NA,NA,NA,NA,NA,24,FALSE,18,59.9136642964,NA,"American English","VSH_Exp2","2016_Mar_03_1204",NA
"Recordings/zuza.wav","yes","z","z","u","no","a","zuza","Training","alveolar","TrainingItems",0,64,64,12,NA,NA,NA,NA,NA,NA,NA,NA,NA,NA,24,FALSE,18,59.9136642964,NA,"American English","VSH_Exp2","2016_Mar_03_1204",NA
"Recordings/bubi.wav","yes","b","b","u","yes","i","bubi","Training","bilabial","TrainingItems",0,65,65,54,NA,NA,NA,NA,NA,NA,NA,NA,NA,NA,24,FALSE,18,59.9136642964,NA,"American English","VSH_Exp2","2016_Mar_03_1204",NA
"Recordings/safi.wav","no","s","f","a","no","i","safi","Training","alveolar","TrainingItems",0,66,66,10,NA,NA,NA,NA,NA,NA,NA,NA,NA,NA,24,FALSE,18,59.9136642964,NA,"American English","VSH_Exp2","2016_Mar_03_1204",NA
"Recordings/pupi.wav","no","p","p","u","yes","i","pupi","Training","bilabial","TrainingItems",0,67,67,27,NA,NA,NA,NA,NA,NA,NA,NA,NA,NA,24,FALSE,18,59.9136642964,NA,"American English","VSH_Exp2","2016_Mar_03_1204",NA
"Recordings/safa.wav","no","s","f","a","no","a","safa","Training","alveolar","TrainingItems",0,68,68,80,NA,NA,NA,NA,NA,NA,NA,NA,NA,NA,24,FALSE,18,59.9136642964,NA,"American English","VSH_Exp2","2016_Mar_03_1204",NA
"Recordings/dadu.wav","yes","d","d","a","yes","u","dadu","Training","alveolar","TrainingItems",0,69,69,86,NA,NA,NA,NA,NA,NA,NA,NA,NA,NA,24,FALSE,18,59.9136642964,NA,"American English","VSH_Exp2","2016_Mar_03_1204",NA
"Recordings/fifi.wav","no","f","f","i","no","i","fifi","Training","bilabial","TrainingItems",0,70,70,98,NA,NA,NA,NA,NA,NA,NA,NA,NA,NA,24,FALSE,18,59.9136642964,NA,"American English","VSH_Exp2","2016_Mar_03_1204",NA
"Recordings/zavu.wav","yes","z","v","a","no","u","zavu","Training","alveolar","TrainingItems",0,71,71,51,NA,NA,NA,NA,NA,NA,NA,NA,NA,NA,24,FALSE,18,59.9136642964,NA,"American English","VSH_Exp2","2016_Mar_03_1204",NA
"Recordings/papa.wav","no","p","p","a","yes","a","papa","Training","bilabial","TrainingItems",0,72,72,66,NA,NA,NA,NA,NA,NA,NA,NA,NA,NA,24,FALSE,18,59.9136642964,NA,"American English","VSH_Exp2","2016_Mar_03_1204",NA
"Recordings/zavi.wav","yes","z","v","a","no","i","zavi","Training","alveolar","TrainingItems",0,73,73,38,NA,NA,NA,NA,NA,NA,NA,NA,NA,NA,24,FALSE,18,59.9136642964,NA,"American English","VSH_Exp2","2016_Mar_03_1204",NA
"Recordings/vaza.wav","yes","v","z","a","no","a","vaza","Training","bilabial","TrainingItems",0,74,74,11,NA,NA,NA,NA,NA,NA,NA,NA,NA,NA,24,FALSE,18,59.9136642964,NA,"American English","VSH_Exp2","2016_Mar_03_1204",NA
"Recordings/zivu.wav","yes","z","v","i","no","u","zivu","Training","alveolar","TrainingItems",0,75,75,74,NA,NA,NA,NA,NA,NA,NA,NA,NA,NA,24,FALSE,18,59.9136642964,NA,"American English","VSH_Exp2","2016_Mar_03_1204",NA
"Recordings/fusu.wav","no","f","s","u","no","u","fusu","Training","bilabial","TrainingItems",0,76,76,36,NA,NA,NA,NA,NA,NA,NA,NA,NA,NA,24,FALSE,18,59.9136642964,NA,"American English","VSH_Exp2","2016_Mar_03_1204",NA
"Recordings/vavi.wav","yes","v","v","a","no","i","vavi","Training","bilabial","TrainingItems",0,77,77,32,NA,NA,NA,NA,NA,NA,NA,NA,NA,NA,24,FALSE,18,59.9136642964,NA,"American English","VSH_Exp2","2016_Mar_03_1204",NA
"Recordings/tapu.wav","no","t","p","a","yes","u","tapu","Training","alveolar","TrainingItems",0,78,78,72,NA,NA,NA,NA,NA,NA,NA,NA,NA,NA,24,FALSE,18,59.9136642964,NA,"American English","VSH_Exp2","2016_Mar_03_1204",NA
"Recordings/fusi.wav","no","f","s","u","no","i","fusi","Training","bilabial","TrainingItems",0,79,79,58,NA,NA,NA,NA,NA,NA,NA,NA,NA,NA,24,FALSE,18,59.9136642964,NA,"American English","VSH_Exp2","2016_Mar_03_1204",NA
"Recordings/puti.wav","no","p","t","u","yes","i","puti","Training","bilabial","TrainingItems",0,80,80,9,NA,NA,NA,NA,NA,NA,NA,NA,NA,NA,24,FALSE,18,59.9136642964,NA,"American English","VSH_Exp2","2016_Mar_03_1204",NA
"Recordings/dadi.wav","yes","d","d","a","yes","i","dadi","Training","alveolar","TrainingItems",0,81,81,84,NA,NA,NA,NA,NA,NA,NA,NA,NA,NA,24,FALSE,18,59.9136642964,NA,"American English","VSH_Exp2","2016_Mar_03_1204",NA
"Recordings/tupu.wav","no","t","p","u","yes","u","tupu","Training","alveolar","TrainingItems",0,82,82,83,NA,NA,NA,NA,NA,NA,NA,NA,NA,NA,24,FALSE,18,59.9136642964,NA,"American English","VSH_Exp2","2016_Mar_03_1204",NA
"Recordings/putu.wav","no","p","t","u","yes","u","putu","Training","bilabial","TrainingItems",0,83,83,13,NA,NA,NA,NA,NA,NA,NA,NA,NA,NA,24,FALSE,18,59.9136642964,NA,"American English","VSH_Exp2","2016_Mar_03_1204",NA
"Recordings/pupa.wav","no","p","p","u","yes","a","pupa","Training","bilabial","TrainingItems",0,84,84,91,NA,NA,NA,NA,NA,NA,NA,NA,NA,NA,24,FALSE,18,59.9136642964,NA,"American English","VSH_Exp2","2016_Mar_03_1204",NA
"Recordings/sufu.wav","no","s","f","u","no","u","sufu","Training","alveolar","TrainingItems",0,85,85,53,NA,NA,NA,NA,NA,NA,NA,NA,NA,NA,24,FALSE,18,59.9136642964,NA,"American English","VSH_Exp2","2016_Mar_03_1204",NA
"Recordings/bibu.wav","yes","b","b","i","yes","u","bibu","Training","bilabial","TrainingItems",0,86,86,16,NA,NA,NA,NA,NA,NA,NA,NA,NA,NA,24,FALSE,18,59.9136642964,NA,"American English","VSH_Exp2","2016_Mar_03_1204",NA
"Recordings/buba.wav","yes","b","b","u","yes","a","buba","Training","bilabial","TrainingItems",0,87,87,45,NA,NA,NA,NA,NA,NA,NA,NA,NA,NA,24,FALSE,18,59.9136642964,NA,"American English","VSH_Exp2","2016_Mar_03_1204",NA
"Recordings/sifi.wav","no","s","f","i","no","i","sifi","Training","alveolar","TrainingItems",0,88,88,77,NA,NA,NA,NA,NA,NA,NA,NA,NA,NA,24,FALSE,18,59.9136642964,NA,"American English","VSH_Exp2","2016_Mar_03_1204",NA
"Recordings/pati.wav","no","p","t","a","yes","i","pati","Training","bilabial","TrainingItems",0,89,89,39,NA,NA,NA,NA,NA,NA,NA,NA,NA,NA,24,FALSE,18,59.9136642964,NA,"American English","VSH_Exp2","2016_Mar_03_1204",NA
"Recordings/vuza.wav","yes","v","z","u","no","a","vuza","Training","bilabial","TrainingItems",0,90,90,7,NA,NA,NA,NA,NA,NA,NA,NA,NA,NA,24,FALSE,18,59.9136642964,NA,"American English","VSH_Exp2","2016_Mar_03_1204",NA
"Recordings/fisi.wav","no","f","s","i","no","i","fisi","Training","bilabial","TrainingItems",0,91,91,15,NA,NA,NA,NA,NA,NA,NA,NA,NA,NA,24,FALSE,18,59.9136642964,NA,"American English","VSH_Exp2","2016_Mar_03_1204",NA
"Recordings/fufi.wav","no","f","f","u","no","i","fufi","Training","bilabial","TrainingItems",0,92,92,22,NA,NA,NA,NA,NA,NA,NA,NA,NA,NA,24,FALSE,18,59.9136642964,NA,"American English","VSH_Exp2","2016_Mar_03_1204",NA
"Recordings/tipu.wav","no","t","p","i","yes","u","tipu","Training","alveolar","TrainingItems",0,93,93,14,NA,NA,NA,NA,NA,NA,NA,NA,NA,NA,24,FALSE,18,59.9136642964,NA,"American English","VSH_Exp2","2016_Mar_03_1204",NA
"Recordings/duda.wav","yes","d","d","u","yes","a","duda","Training","alveolar","TrainingItems",0,94,94,30,NA,NA,NA,NA,NA,NA,NA,NA,NA,NA,24,FALSE,18,59.9136642964,NA,"American English","VSH_Exp2","2016_Mar_03_1204",NA
"Recordings/zaza.wav","yes","z","z","a","no","a","zaza","Training","alveolar","TrainingItems",0,95,95,62,NA,NA,NA,NA,NA,NA,NA,NA,NA,NA,24,FALSE,18,59.9136642964,NA,"American English","VSH_Exp2","2016_Mar_03_1204",NA
"Recordings/pitu.wav","no","p","t","i","yes","u","pitu","Training","bilabial","TrainingItems",0,96,96,0,NA,NA,NA,NA,NA,NA,NA,NA,NA,NA,24,FALSE,18,59.9136642964,NA,"American English","VSH_Exp2","2016_Mar_03_1204",NA
"Recordings/tutu.wav","no","t","t","u","yes","u","tutu","Training","alveolar","TrainingItems",0,97,97,3,NA,NA,NA,NA,NA,NA,NA,NA,NA,NA,24,FALSE,18,59.9136642964,NA,"American English","VSH_Exp2","2016_Mar_03_1204",NA
"Recordings/titu.wav","no","t","t","i","yes","u","titu","Training","alveolar","TrainingItems",0,98,98,67,NA,NA,NA,NA,NA,NA,NA,NA,NA,NA,24,FALSE,18,59.9136642964,NA,"American English","VSH_Exp2","2016_Mar_03_1204",NA
"Recordings/zivi.wav","yes","z","v","i","no","i","zivi","Training","alveolar","TrainingItems",0,99,99,5,NA,NA,NA,NA,NA,NA,NA,NA,NA,NA,24,FALSE,18,59.9136642964,NA,"American English","VSH_Exp2","2016_Mar_03_1204",NA
"Recordings/patu.wav","no","p","t","a","yes","u","patu","Training","bilabial","TrainingItems",1,0,100,92,NA,NA,NA,NA,NA,NA,NA,NA,NA,NA,24,FALSE,18,59.9136642964,NA,"American English","VSH_Exp2","2016_Mar_03_1204",NA
"Recordings/vavu.wav","yes","v","v","a","no","u","vavu","Training","bilabial","TrainingItems",1,1,101,99,NA,NA,NA,NA,NA,NA,NA,NA,NA,NA,24,FALSE,18,59.9136642964,NA,"American English","VSH_Exp2","2016_Mar_03_1204",NA
"Recordings/vava.wav","yes","v","v","a","no","a","vava","Training","bilabial","TrainingItems",1,2,102,82,NA,NA,NA,NA,NA,NA,NA,NA,NA,NA,24,FALSE,18,59.9136642964,NA,"American English","VSH_Exp2","2016_Mar_03_1204",NA
"Recordings/zuvu.wav","yes","z","v","u","no","u","zuvu","Training","alveolar","TrainingItems",1,3,103,75,NA,NA,NA,NA,NA,NA,NA,NA,NA,NA,24,FALSE,18,59.9136642964,NA,"American English","VSH_Exp2","2016_Mar_03_1204",NA
"Recordings/zavu.wav","yes","z","v","a","no","u","zavu","Training","alveolar","TrainingItems",1,4,104,51,NA,NA,NA,NA,NA,NA,NA,NA,NA,NA,24,FALSE,18,59.9136642964,NA,"American English","VSH_Exp2","2016_Mar_03_1204",NA
"Recordings/dida.wav","yes","d","d","i","yes","a","dida","Training","alveolar","TrainingItems",1,5,105,95,NA,NA,NA,NA,NA,NA,NA,NA,NA,NA,24,FALSE,18,59.9136642964,NA,"American English","VSH_Exp2","2016_Mar_03_1204",NA
"Recordings/tatu.wav","no","t","t","a","yes","u","tatu","Training","alveolar","TrainingItems",1,6,106,24,NA,NA,NA,NA,NA,NA,NA,NA,NA,NA,24,FALSE,18,59.9136642964,NA,"American English","VSH_Exp2","2016_Mar_03_1204",NA
"Recordings/pupa.wav","no","p","p","u","yes","a","pupa","Training","bilabial","TrainingItems",1,7,107,91,NA,NA,NA,NA,NA,NA,NA,NA,NA,NA,24,FALSE,18,59.9136642964,NA,"American English","VSH_Exp2","2016_Mar_03_1204",NA
"Recordings/sasa.wav","no","s","s","a","no","a","sasa","Training","alveolar","TrainingItems",1,8,108,56,NA,NA,NA,NA,NA,NA,NA,NA,NA,NA,24,FALSE,18,59.9136642964,NA,"American English","VSH_Exp2","2016_Mar_03_1204",NA
"Recordings/babi.wav","yes","b","b","a","yes","i","babi","Training","bilabial","TrainingItems",1,9,109,55,NA,NA,NA,NA,NA,NA,NA,NA,NA,NA,24,FALSE,18,59.9136642964,NA,"American English","VSH_Exp2","2016_Mar_03_1204",NA
"Recordings/sasi.wav","no","s","s","a","no","i","sasi","Training","alveolar","TrainingItems",1,10,110,8,NA,NA,NA,NA,NA,NA,NA,NA,NA,NA,24,FALSE,18,59.9136642964,NA,"American English","VSH_Exp2","2016_Mar_03_1204",NA
"Recordings/fufi.wav","no","f","f","u","no","i","fufi","Training","bilabial","TrainingItems",1,11,111,22,NA,NA,NA,NA,NA,NA,NA,NA,NA,NA,24,FALSE,18,59.9136642964,NA,"American English","VSH_Exp2","2016_Mar_03_1204",NA
"Recordings/sisa.wav","no","s","s","i","no","a","sisa","Training","alveolar","TrainingItems",1,12,112,57,NA,NA,NA,NA,NA,NA,NA,NA,NA,NA,24,FALSE,18,59.9136642964,NA,"American English","VSH_Exp2","2016_Mar_03_1204",NA
"Recordings/fufu.wav","no","f","f","u","no","u","fufu","Training","bilabial","TrainingItems",1,13,113,97,NA,NA,NA,NA,NA,NA,NA,NA,NA,NA,24,FALSE,18,59.9136642964,NA,"American English","VSH_Exp2","2016_Mar_03_1204",NA
"Recordings/papu.wav","no","p","p","a","yes","u","papu","Training","bilabial","TrainingItems",1,14,114,23,NA,NA,NA,NA,NA,NA,NA,NA,NA,NA,24,FALSE,18,59.9136642964,NA,"American English","VSH_Exp2","2016_Mar_03_1204",NA
"Recordings/vuvi.wav","yes","v","v","u","no","i","vuvi","Training","bilabial","TrainingItems",1,15,115,44,NA,NA,NA,NA,NA,NA,NA,NA,NA,NA,24,FALSE,18,59.9136642964,NA,"American English","VSH_Exp2","2016_Mar_03_1204",NA
"Recordings/pipa.wav","no","p","p","i","yes","a","pipa","Training","bilabial","TrainingItems",1,16,116,65,NA,NA,NA,NA,NA,NA,NA,NA,NA,NA,24,FALSE,18,59.9136642964,NA,"American English","VSH_Exp2","2016_Mar_03_1204",NA
"Recordings/tipi.wav","no","t","p","i","yes","i","tipi","Training","alveolar","TrainingItems",1,17,117,35,NA,NA,NA,NA,NA,NA,NA,NA,NA,NA,24,FALSE,18,59.9136642964,NA,"American English","VSH_Exp2","2016_Mar_03_1204",NA
"Recordings/puti.wav","no","p","t","u","yes","i","puti","Training","bilabial","TrainingItems",1,18,118,9,NA,NA,NA,NA,NA,NA,NA,NA,NA,NA,24,FALSE,18,59.9136642964,NA,"American English","VSH_Exp2","2016_Mar_03_1204",NA
"Recordings/pipu.wav","no","p","p","i","yes","u","pipu","Training","bilabial","TrainingItems",1,19,119,37,NA,NA,NA,NA,NA,NA,NA,NA,NA,NA,24,FALSE,18,59.9136642964,NA,"American English","VSH_Exp2","2016_Mar_03_1204",NA
"Recordings/putu.wav","no","p","t","u","yes","u","putu","Training","bilabial","TrainingItems",1,20,120,13,NA,NA,NA,NA,NA,NA,NA,NA,NA,NA,24,FALSE,18,59.9136642964,NA,"American English","VSH_Exp2","2016_Mar_03_1204",NA
"Recordings/pupu.wav","no","p","p","u","yes","u","pupu","Training","bilabial","TrainingItems",1,21,121,41,NA,NA,NA,NA,NA,NA,NA,NA,NA,NA,24,FALSE,18,59.9136642964,NA,"American English","VSH_Exp2","2016_Mar_03_1204",NA
"Recordings/vivu.wav","yes","v","v","i","no","u","vivu","Training","bilabial","TrainingItems",1,22,122,71,NA,NA,NA,NA,NA,NA,NA,NA,NA,NA,24,FALSE,18,59.9136642964,NA,"American English","VSH_Exp2","2016_Mar_03_1204",NA
"Recordings/sufu.wav","no","s","f","u","no","u","sufu","Training","alveolar","TrainingItems",1,23,123,53,NA,NA,NA,NA,NA,NA,NA,NA,NA,NA,24,FALSE,18,59.9136642964,NA,"American English","VSH_Exp2","2016_Mar_03_1204",NA
"Recordings/zizu.wav","yes","z","z","i","no","u","zizu","Training","alveolar","TrainingItems",1,24,124,6,NA,NA,NA,NA,NA,NA,NA,NA,NA,NA,24,FALSE,18,59.9136642964,NA,"American English","VSH_Exp2","2016_Mar_03_1204",NA
"Recordings/bibi.wav","yes","b","b","i","yes","i","bibi","Training","bilabial","TrainingItems",1,25,125,96,NA,NA,NA,NA,NA,NA,NA,NA,NA,NA,24,FALSE,18,59.9136642964,NA,"American English","VSH_Exp2","2016_Mar_03_1204",NA
"Recordings/fasa.wav","no","f","s","a","no","a","fasa","Training","bilabial","TrainingItems",1,26,126,21,NA,NA,NA,NA,NA,NA,NA,NA,NA,NA,24,FALSE,18,59.9136642964,NA,"American English","VSH_Exp2","2016_Mar_03_1204",NA
"Recordings/dadu.wav","yes","d","d","a","yes","u","dadu","Training","alveolar","TrainingItems",1,27,127,86,NA,NA,NA,NA,NA,NA,NA,NA,NA,NA,24,FALSE,18,59.9136642964,NA,"American English","VSH_Exp2","2016_Mar_03_1204",NA
"Recordings/pata.wav","no","p","t","a","yes","a","pata","Training","bilabial","TrainingItems",1,28,128,70,NA,NA,NA,NA,NA,NA,NA,NA,NA,NA,24,FALSE,18,59.9136642964,NA,"American English","VSH_Exp2","2016_Mar_03_1204",NA
"Recordings/fusi.wav","no","f","s","u","no","i","fusi","Training","bilabial","TrainingItems",1,29,129,58,NA,NA,NA,NA,NA,NA,NA,NA,NA,NA,24,FALSE,18,59.9136642964,NA,"American English","VSH_Exp2","2016_Mar_03_1204",NA
"Recordings/vazu.wav","yes","v","z","a","no","u","vazu","Training","bilabial","TrainingItems",1,30,130,26,NA,NA,NA,NA,NA,NA,NA,NA,NA,NA,24,FALSE,18,59.9136642964,NA,"American English","VSH_Exp2","2016_Mar_03_1204",NA
"Recordings/baba.wav","yes","b","b","a","yes","a","baba","Training","bilabial","TrainingItems",1,31,131,33,NA,NA,NA,NA,NA,NA,NA,NA,NA,NA,24,FALSE,18,59.9136642964,NA,"American English","VSH_Exp2","2016_Mar_03_1204",NA
"Recordings/vuza.wav","yes","v","z","u","no","a","vuza","Training","bilabial","TrainingItems",1,32,132,7,NA,NA,NA,NA,NA,NA,NA,NA,NA,NA,24,FALSE,18,59.9136642964,NA,"American English","VSH_Exp2","2016_Mar_03_1204",NA
"Recordings/zaza.wav","yes","z","z","a","no","a","zaza","Training","alveolar","TrainingItems",1,33,133,62,NA,NA,NA,NA,NA,NA,NA,NA,NA,NA,24,FALSE,18,59.9136642964,NA,"American English","VSH_Exp2","2016_Mar_03_1204",NA
"Recordings/zazi.wav","yes","z","z","a","no","i","zazi","Training","alveolar","TrainingItems",1,34,134,81,NA,NA,NA,NA,NA,NA,NA,NA,NA,NA,24,FALSE,18,59.9136642964,NA,"American English","VSH_Exp2","2016_Mar_03_1204",NA
"Recordings/zazu.wav","yes","z","z","a","no","u","zazu","Training","alveolar","TrainingItems",1,35,135,79,NA,NA,NA,NA,NA,NA,NA,NA,NA,NA,24,FALSE,18,59.9136642964,NA,"American English","VSH_Exp2","2016_Mar_03_1204",NA
"Recordings/vuzu.wav","yes","v","z","u","no","u","vuzu","Training","bilabial","TrainingItems",1,36,136,64,NA,NA,NA,NA,NA,NA,NA,NA,NA,NA,24,FALSE,18,59.9136642964,NA,"American English","VSH_Exp2","2016_Mar_03_1204",NA
"Recordings/vavi.wav","yes","v","v","a","no","i","vavi","Training","bilabial","TrainingItems",1,37,137,32,NA,NA,NA,NA,NA,NA,NA,NA,NA,NA,24,FALSE,18,59.9136642964,NA,"American English","VSH_Exp2","2016_Mar_03_1204",NA
"Recordings/sufa.wav","no","s","f","u","no","a","sufa","Training","alveolar","TrainingItems",1,38,138,60,NA,NA,NA,NA,NA,NA,NA,NA,NA,NA,24,FALSE,18,59.9136642964,NA,"American English","VSH_Exp2","2016_Mar_03_1204",NA
"Recordings/tapi.wav","no","t","p","a","yes","i","tapi","Training","alveolar","TrainingItems",1,39,139,17,NA,NA,NA,NA,NA,NA,NA,NA,NA,NA,24,FALSE,18,59.9136642964,NA,"American English","VSH_Exp2","2016_Mar_03_1204",NA
"Recordings/ziza.wav","yes","z","z","i","no","a","ziza","Training","alveolar","TrainingItems",1,40,140,59,NA,NA,NA,NA,NA,NA,NA,NA,NA,NA,24,FALSE,18,59.9136642964,NA,"American English","VSH_Exp2","2016_Mar_03_1204",NA
"Recordings/zivu.wav","yes","z","v","i","no","u","zivu","Training","alveolar","TrainingItems",1,41,141,74,NA,NA,NA,NA,NA,NA,NA,NA,NA,NA,24,FALSE,18,59.9136642964,NA,"American English","VSH_Exp2","2016_Mar_03_1204",NA
"Recordings/zivi.wav","yes","z","v","i","no","i","zivi","Training","alveolar","TrainingItems",1,42,142,5,NA,NA,NA,NA,NA,NA,NA,NA,NA,NA,24,FALSE,18,59.9136642964,NA,"American English","VSH_Exp2","2016_Mar_03_1204",NA
"Recordings/tipu.wav","no","t","p","i","yes","u","tipu","Training","alveolar","TrainingItems",1,43,143,14,NA,NA,NA,NA,NA,NA,NA,NA,NA,NA,24,FALSE,18,59.9136642964,NA,"American English","VSH_Exp2","2016_Mar_03_1204",NA
"Recordings/buba.wav","yes","b","b","u","yes","a","buba","Training","bilabial","TrainingItems",1,44,144,45,NA,NA,NA,NA,NA,NA,NA,NA,NA,NA,24,FALSE,18,59.9136642964,NA,"American English","VSH_Exp2","2016_Mar_03_1204",NA
"Recordings/zuvi.wav","yes","z","v","u","no","i","zuvi","Training","alveolar","TrainingItems",1,45,145,52,NA,NA,NA,NA,NA,NA,NA,NA,NA,NA,24,FALSE,18,59.9136642964,NA,"American English","VSH_Exp2","2016_Mar_03_1204",NA
"Recordings/tupu.wav","no","t","p","u","yes","u","tupu","Training","alveolar","TrainingItems",1,46,146,83,NA,NA,NA,NA,NA,NA,NA,NA,NA,NA,24,FALSE,18,59.9136642964,NA,"American English","VSH_Exp2","2016_Mar_03_1204",NA
"Recordings/tupi.wav","no","t","p","u","yes","i","tupi","Training","alveolar","TrainingItems",1,47,147,50,NA,NA,NA,NA,NA,NA,NA,NA,NA,NA,24,FALSE,18,59.9136642964,NA,"American English","VSH_Exp2","2016_Mar_03_1204",NA
"Recordings/pupi.wav","no","p","p","u","yes","i","pupi","Training","bilabial","TrainingItems",1,48,148,27,NA,NA,NA,NA,NA,NA,NA,NA,NA,NA,24,FALSE,18,59.9136642964,NA,"American English","VSH_Exp2","2016_Mar_03_1204",NA
"Recordings/papa.wav","no","p","p","a","yes","a","papa","Training","bilabial","TrainingItems",1,49,149,66,NA,NA,NA,NA,NA,NA,NA,NA,NA,NA,24,FALSE,18,59.9136642964,NA,"American English","VSH_Exp2","2016_Mar_03_1204",NA
"Recordings/papi.wav","no","p","p","a","yes","i","papi","Training","bilabial","TrainingItems",1,50,150,28,NA,NA,NA,NA,NA,NA,NA,NA,NA,NA,24,FALSE,18,59.9136642964,NA,"American English","VSH_Exp2","2016_Mar_03_1204",NA
"Recordings/pita.wav","no","p","t","i","yes","a","pita","Training","bilabial","TrainingItems",1,51,151,69,NA,NA,NA,NA,NA,NA,NA,NA,NA,NA,24,FALSE,18,59.9136642964,NA,"American English","VSH_Exp2","2016_Mar_03_1204",NA
"Recordings/fusa.wav","no","f","s","u","no","a","fusa","Training","bilabial","TrainingItems",1,52,152,31,NA,NA,NA,NA,NA,NA,NA,NA,NA,NA,24,FALSE,18,59.9136642964,NA,"American English","VSH_Exp2","2016_Mar_03_1204",NA
"Recordings/tutu.wav","no","t","t","u","yes","u","tutu","Training","alveolar","TrainingItems",1,53,153,3,NA,NA,NA,NA,NA,NA,NA,NA,NA,NA,24,FALSE,18,59.9136642964,NA,"American English","VSH_Exp2","2016_Mar_03_1204",NA
"Recordings/babu.wav","yes","b","b","a","yes","u","babu","Training","bilabial","TrainingItems",1,54,154,18,NA,NA,NA,NA,NA,NA,NA,NA,NA,NA,24,FALSE,18,59.9136642964,NA,"American English","VSH_Exp2","2016_Mar_03_1204",NA
"Recordings/fisa.wav","no","f","s","i","no","a","fisa","Training","bilabial","TrainingItems",1,55,155,85,NA,NA,NA,NA,NA,NA,NA,NA,NA,NA,24,FALSE,18,59.9136642964,NA,"American English","VSH_Exp2","2016_Mar_03_1204",NA
"Recordings/fifi.wav","no","f","f","i","no","i","fifi","Training","bilabial","TrainingItems",1,56,156,98,NA,NA,NA,NA,NA,NA,NA,NA,NA,NA,24,FALSE,18,59.9136642964,NA,"American English","VSH_Exp2","2016_Mar_03_1204",NA
"Recordings/tipa.wav","no","t","p","i","yes","a","tipa","Training","alveolar","TrainingItems",1,57,157,43,NA,NA,NA,NA,NA,NA,NA,NA,NA,NA,24,FALSE,18,59.9136642964,NA,"American English","VSH_Exp2","2016_Mar_03_1204",NA
"Recordings/zuzi.wav","yes","z","z","u","no","i","zuzi","Training","alveolar","TrainingItems",1,58,158,46,NA,NA,NA,NA,NA,NA,NA,NA,NA,NA,24,FALSE,18,59.9136642964,NA,"American English","VSH_Exp2","2016_Mar_03_1204",NA
"Recordings/susa.wav","no","s","s","u","no","a","susa","Training","alveolar","TrainingItems",1,59,159,88,NA,NA,NA,NA,NA,NA,NA,NA,NA,NA,24,FALSE,18,59.9136642964,NA,"American English","VSH_Exp2","2016_Mar_03_1204",NA
"Recordings/fisu.wav","no","f","s","i","no","u","fisu","Training","bilabial","TrainingItems",1,60,160,61,NA,NA,NA,NA,NA,NA,NA,NA,NA,NA,24,FALSE,18,59.9136642964,NA,"American English","VSH_Exp2","2016_Mar_03_1204",NA
"Recordings/zuza.wav","yes","z","z","u","no","a","zuza","Training","alveolar","TrainingItems",1,61,161,12,NA,NA,NA,NA,NA,NA,NA,NA,NA,NA,24,FALSE,18,59.9136642964,NA,"American English","VSH_Exp2","2016_Mar_03_1204",NA
"Recordings/bibu.wav","yes","b","b","i","yes","u","bibu","Training","bilabial","TrainingItems",1,62,162,16,NA,NA,NA,NA,NA,NA,NA,NA,NA,NA,24,FALSE,18,59.9136642964,NA,"American English","VSH_Exp2","2016_Mar_03_1204",NA
"Recordings/safa.wav","no","s","f","a","no","a","safa","Training","alveolar","TrainingItems",1,63,163,80,NA,NA,NA,NA,NA,NA,NA,NA,NA,NA,24,FALSE,18,59.9136642964,NA,"American English","VSH_Exp2","2016_Mar_03_1204",NA
"Recordings/sifu.wav","no","s","f","i","no","u","sifu","Training","alveolar","TrainingItems",1,64,164,2,NA,NA,NA,NA,NA,NA,NA,NA,NA,NA,24,FALSE,18,59.9136642964,NA,"American English","VSH_Exp2","2016_Mar_03_1204",NA
"Recordings/sifi.wav","no","s","f","i","no","i","sifi","Training","alveolar","TrainingItems",1,65,165,77,NA,NA,NA,NA,NA,NA,NA,NA,NA,NA,24,FALSE,18,59.9136642964,NA,"American English","VSH_Exp2","2016_Mar_03_1204",NA
"Recordings/tati.wav","no","t","t","a","yes","i","tati","Training","alveolar","TrainingItems",1,66,166,29,NA,NA,NA,NA,NA,NA,NA,NA,NA,NA,24,FALSE,18,59.9136642964,NA,"American English","VSH_Exp2","2016_Mar_03_1204",NA
"Recordings/bubi.wav","yes","b","b","u","yes","i","bubi","Training","bilabial","TrainingItems",1,67,167,54,NA,NA,NA,NA,NA,NA,NA,NA,NA,NA,24,FALSE,18,59.9136642964,NA,"American English","VSH_Exp2","2016_Mar_03_1204",NA
"Recordings/fifu.wav","no","f","f","i","no","u","fifu","Training","bilabial","TrainingItems",1,68,168,76,NA,NA,NA,NA,NA,NA,NA,NA,NA,NA,24,FALSE,18,59.9136642964,NA,"American English","VSH_Exp2","2016_Mar_03_1204",NA
"Recordings/tapa.wav","no","t","p","a","yes","a","tapa","Training","alveolar","TrainingItems",1,69,169,34,NA,NA,NA,NA,NA,NA,NA,NA,NA,NA,24,FALSE,18,59.9136642964,NA,"American English","VSH_Exp2","2016_Mar_03_1204",NA
"Recordings/pitu.wav","no","p","t","i","yes","u","pitu","Training","bilabial","TrainingItems",1,70,170,0,NA,NA,NA,NA,NA,NA,NA,NA,NA,NA,24,FALSE,18,59.9136642964,NA,"American English","VSH_Exp2","2016_Mar_03_1204",NA
"Recordings/titu.wav","no","t","t","i","yes","u","titu","Training","alveolar","TrainingItems",1,71,171,67,NA,NA,NA,NA,NA,NA,NA,NA,NA,NA,24,FALSE,18,59.9136642964,NA,"American English","VSH_Exp2","2016_Mar_03_1204",NA
"Recordings/fufa.wav","no","f","f","u","no","a","fufa","Training","bilabial","TrainingItems",1,72,172,93,NA,NA,NA,NA,NA,NA,NA,NA,NA,NA,24,FALSE,18,59.9136642964,NA,"American English","VSH_Exp2","2016_Mar_03_1204",NA
"Recordings/tata.wav","no","t","t","a","yes","a","tata","Training","alveolar","TrainingItems",1,73,173,20,NA,NA,NA,NA,NA,NA,NA,NA,NA,NA,24,FALSE,18,59.9136642964,NA,"American English","VSH_Exp2","2016_Mar_03_1204",NA
"Recordings/tupa.wav","no","t","p","u","yes","a","tupa","Training","alveolar","TrainingItems",1,74,174,42,NA,NA,NA,NA,NA,NA,NA,NA,NA,NA,24,FALSE,18,59.9136642964,NA,"American English","VSH_Exp2","2016_Mar_03_1204",NA
"Recordings/pipi.wav","no","p","p","i","yes","i","pipi","Training","bilabial","TrainingItems",1,75,175,4,NA,NA,NA,NA,NA,NA,NA,NA,NA,NA,24,FALSE,18,59.9136642964,NA,"American English","VSH_Exp2","2016_Mar_03_1204",NA
"Recordings/dudu.wav","yes","d","d","u","yes","u","dudu","Training","alveolar","TrainingItems",1,76,176,48,NA,NA,NA,NA,NA,NA,NA,NA,NA,NA,24,FALSE,18,59.9136642964,NA,"American English","VSH_Exp2","2016_Mar_03_1204",NA
"Recordings/viza.wav","yes","v","z","i","no","a","viza","Training","bilabial","TrainingItems",1,77,177,47,NA,NA,NA,NA,NA,NA,NA,NA,NA,NA,24,FALSE,18,59.9136642964,NA,"American English","VSH_Exp2","2016_Mar_03_1204",NA
"Recordings/didu.wav","yes","d","d","i","yes","u","didu","Training","alveolar","TrainingItems",1,78,178,90,NA,NA,NA,NA,NA,NA,NA,NA,NA,NA,24,FALSE,18,59.9136642964,NA,"American English","VSH_Exp2","2016_Mar_03_1204",NA
"Recordings/fusu.wav","no","f","s","u","no","u","fusu","Training","bilabial","TrainingItems",1,79,179,36,NA,NA,NA,NA,NA,NA,NA,NA,NA,NA,24,FALSE,18,59.9136642964,NA,"American English","VSH_Exp2","2016_Mar_03_1204",NA
"Recordings/dadi.wav","yes","d","d","a","yes","i","dadi","Training","alveolar","TrainingItems",1,80,180,84,NA,NA,NA,NA,NA,NA,NA,NA,NA,NA,24,FALSE,18,59.9136642964,NA,"American English","VSH_Exp2","2016_Mar_03_1204",NA
"Recordings/vaza.wav","yes","v","z","a","no","a","vaza","Training","bilabial","TrainingItems",1,81,181,11,NA,NA,NA,NA,NA,NA,NA,NA,NA,NA,24,FALSE,18,59.9136642964,NA,"American English","VSH_Exp2","2016_Mar_03_1204",NA
"Recordings/zavi.wav","yes","z","v","a","no","i","zavi","Training","alveolar","TrainingItems",1,82,182,38,NA,NA,NA,NA,NA,NA,NA,NA,NA,NA,24,FALSE,18,59.9136642964,NA,"American English","VSH_Exp2","2016_Mar_03_1204",NA
"Recordings/vazi.wav","yes","v","z","a","no","i","vazi","Training","bilabial","TrainingItems",1,83,183,94,NA,NA,NA,NA,NA,NA,NA,NA,NA,NA,24,FALSE,18,59.9136642964,NA,"American English","VSH_Exp2","2016_Mar_03_1204",NA
"Recordings/dudi.wav","yes","d","d","u","yes","i","dudi","Training","alveolar","TrainingItems",1,84,184,63,NA,NA,NA,NA,NA,NA,NA,NA,NA,NA,24,FALSE,18,59.9136642964,NA,"American English","VSH_Exp2","2016_Mar_03_1204",NA
"Recordings/dada.wav","yes","d","d","a","yes","a","dada","Training","alveolar","TrainingItems",1,85,185,68,NA,NA,NA,NA,NA,NA,NA,NA,NA,NA,24,FALSE,18,59.9136642964,NA,"American English","VSH_Exp2","2016_Mar_03_1204",NA
"Recordings/duda.wav","yes","d","d","u","yes","a","duda","Training","alveolar","TrainingItems",1,86,186,30,NA,NA,NA,NA,NA,NA,NA,NA,NA,NA,24,FALSE,18,59.9136642964,NA,"American English","VSH_Exp2","2016_Mar_03_1204",NA
"Recordings/vizi.wav","yes","v","z","i","no","i","vizi","Training","bilabial","TrainingItems",1,87,187,49,NA,NA,NA,NA,NA,NA,NA,NA,NA,NA,24,FALSE,18,59.9136642964,NA,"American English","VSH_Exp2","2016_Mar_03_1204",NA
"Recordings/tita.wav","no","t","t","i","yes","a","tita","Training","alveolar","TrainingItems",1,88,188,78,NA,NA,NA,NA,NA,NA,NA,NA,NA,NA,24,FALSE,18,59.9136642964,NA,"American English","VSH_Exp2","2016_Mar_03_1204",NA
"Recordings/pati.wav","no","p","t","a","yes","i","pati","Training","bilabial","TrainingItems",1,89,189,39,NA,NA,NA,NA,NA,NA,NA,NA,NA,NA,24,FALSE,18,59.9136642964,NA,"American English","VSH_Exp2","2016_Mar_03_1204",NA
"Recordings/viva.wav","yes","v","v","i","no","a","viva","Training","bilabial","TrainingItems",1,90,190,1,NA,NA,NA,NA,NA,NA,NA,NA,NA,NA,24,FALSE,18,59.9136642964,NA,"American English","VSH_Exp2","2016_Mar_03_1204",NA
"Recordings/safi.wav","no","s","f","a","no","i","safi","Training","alveolar","TrainingItems",1,91,191,10,NA,NA,NA,NA,NA,NA,NA,NA,NA,NA,24,FALSE,18,59.9136642964,NA,"American English","VSH_Exp2","2016_Mar_03_1204",NA
"Recordings/puta.wav","no","p","t","u","yes","a","puta","Training","bilabial","TrainingItems",1,92,192,40,NA,NA,NA,NA,NA,NA,NA,NA,NA,NA,24,FALSE,18,59.9136642964,NA,"American English","VSH_Exp2","2016_Mar_03_1204",NA
"Recordings/fisi.wav","no","f","s","i","no","i","fisi","Training","bilabial","TrainingItems",1,93,193,15,NA,NA,NA,NA,NA,NA,NA,NA,NA,NA,24,FALSE,18,59.9136642964,NA,"American English","VSH_Exp2","2016_Mar_03_1204",NA
"Recordings/fafa.wav","no","f","f","a","no","a","fafa","Training","bilabial","TrainingItems",1,94,194,73,NA,NA,NA,NA,NA,NA,NA,NA,NA,NA,24,FALSE,18,59.9136642964,NA,"American English","VSH_Exp2","2016_Mar_03_1204",NA
"Recordings/tapu.wav","no","t","p","a","yes","u","tapu","Training","alveolar","TrainingItems",1,95,195,72,NA,NA,NA,NA,NA,NA,NA,NA,NA,NA,24,FALSE,18,59.9136642964,NA,"American English","VSH_Exp2","2016_Mar_03_1204",NA
"Recordings/fasu.wav","no","f","s","a","no","u","fasu","Training","bilabial","TrainingItems",1,96,196,87,NA,NA,NA,NA,NA,NA,NA,NA,NA,NA,24,FALSE,18,59.9136642964,NA,"American English","VSH_Exp2","2016_Mar_03_1204",NA
"Recordings/ziva.wav","yes","z","v","i","no","a","ziva","Training","alveolar","TrainingItems",1,97,197,89,NA,NA,NA,NA,NA,NA,NA,NA,NA,NA,24,FALSE,18,59.9136642964,NA,"American English","VSH_Exp2","2016_Mar_03_1204",NA
"Recordings/fafi.wav","no","f","f","a","no","i","fafi","Training","bilabial","TrainingItems",1,98,198,25,NA,NA,NA,NA,NA,NA,NA,NA,NA,NA,24,FALSE,18,59.9136642964,NA,"American English","VSH_Exp2","2016_Mar_03_1204",NA
"Recordings/tuta.wav","no","t","t","u","yes","a","tuta","Training","alveolar","TrainingItems",1,99,199,19,NA,NA,NA,NA,NA,NA,NA,NA,NA,NA,24,FALSE,18,59.9136642964,NA,"American English","VSH_Exp2","2016_Mar_03_1204",NA
NA,NA,NA,NA,NA,NA,NA,NA,NA,NA,NA,NA,NA,NA,NA,NA,NA,NA,NA,NA,NA,"space",8.1928460598,NA,NA,24,FALSE,18,59.9136642964,NA,"American English","VSH_Exp2","2016_Mar_03_1204",NA
"Recordings/vivi.wav","yes","v","v","i","no","i","vivi","Test","bilabial","NewWordTestStimuli",NA,NA,NA,NA,0,0,0,27,NA,NA,NA,NA,"Yes",5.34,24,FALSE,18,59.9136642964,NA,"American English","VSH_Exp2","2016_Mar_03_1204",NA
"Recordings/supi.wav","no","s","p","u","no","i","supi","Controls","alveolar","VoicingControls",NA,NA,NA,NA,0,1,1,48,NA,NA,NA,NA,"No",5.808,24,FALSE,18,59.9136642964,NA,"American English","VSH_Exp2","2016_Mar_03_1204",NA
"Recordings/zati.wav","yes","z","t","a","no","i","zati","Controls","alveolar","NoPatternControls",NA,NA,NA,NA,0,2,2,55,NA,NA,NA,NA,"Yes",6.342,24,FALSE,18,59.9136642964,NA,"American English","VSH_Exp2","2016_Mar_03_1204",NA
"Recordings/daba.wav","yes","d","b","a","yes","a","daba","Test","alveolar","NewConsTestStimuli",NA,NA,NA,NA,0,3,3,11,NA,NA,NA,NA,"Yes",5.323,24,FALSE,18,59.9136642964,NA,"American English","VSH_Exp2","2016_Mar_03_1204",NA
"Recordings/pivu.wav","no","p","v","i","yes","u","pivu","Controls","bilabial","NoPatternControls",NA,NA,NA,NA,0,4,4,59,NA,NA,NA,NA,"No",5.942,24,FALSE,18,59.9136642964,NA,"American English","VSH_Exp2","2016_Mar_03_1204",NA
"Recordings/vupa.wav","yes","v","p","u","no","a","vupa","Controls","bilabial","NoPatternControls",NA,NA,NA,NA,0,5,5,57,NA,NA,NA,NA,"Yes",4.14,24,FALSE,18,59.9136642964,NA,"American English","VSH_Exp2","2016_Mar_03_1204",NA
"Recordings/tuzi.wav","no","t","z","u","yes","i","tuzi","Controls","alveolar","NoPatternControls",NA,NA,NA,NA,0,6,6,53,NA,NA,NA,NA,"No",4.289,24,FALSE,18,59.9136642964,NA,"American English","VSH_Exp2","2016_Mar_03_1204",NA
"Recordings/sudi.wav","no","s","d","u","no","i","sudi","Controls","alveolar","NoPatternControls",NA,NA,NA,NA,0,7,7,58,NA,NA,NA,NA,"Yes",4.49,24,FALSE,18,59.9136642964,NA,"American English","VSH_Exp2","2016_Mar_03_1204",NA
"Recordings/tapu.wav","no","t","p","a","yes","u","tapu","Test","alveolar","OldTestStimuli",NA,NA,NA,NA,0,8,8,1,NA,NA,NA,NA,"Yes",4.925,24,FALSE,18,59.9136642964,NA,"American English","VSH_Exp2","2016_Mar_03_1204",NA
"Recordings/diba.wav","yes","d","b","i","yes","a","diba","Test","alveolar","NewConsTestStimuli",NA,NA,NA,NA,0,9,9,18,NA,NA,NA,NA,"No",4.675,24,FALSE,18,59.9136642964,NA,"American English","VSH_Exp2","2016_Mar_03_1204",NA
"Recordings/vuvu.wav","yes","v","v","u","no","u","vuvu","Test","bilabial","NewWordTestStimuli",NA,NA,NA,NA,0,10,10,25,NA,NA,NA,NA,"Yes",2.639,24,FALSE,18,59.9136642964,NA,"American English","VSH_Exp2","2016_Mar_03_1204",NA
"Recordings/susu.wav","no","s","s","u","no","u","susu","Test","alveolar","NewWordTestStimuli",NA,NA,NA,NA,0,11,11,24,NA,NA,NA,NA,"Yes",4.557,24,FALSE,18,59.9136642964,NA,"American English","VSH_Exp2","2016_Mar_03_1204",NA
"Recordings/safu.wav","no","s","f","a","no","u","safu","Test","alveolar","NewWordTestStimuli",NA,NA,NA,NA,0,12,12,28,NA,NA,NA,NA,"No",6.476,24,FALSE,18,59.9136642964,NA,"American English","VSH_Exp2","2016_Mar_03_1204",NA
"Recordings/fupa.wav","no","f","p","u","no","a","fupa","Controls","bilabial","VoicingControls",NA,NA,NA,NA,0,13,13,44,NA,NA,NA,NA,"Yes",2.238,24,FALSE,18,59.9136642964,NA,"American English","VSH_Exp2","2016_Mar_03_1204",NA
"Recordings/pibu.wav","no","p","b","i","yes","u","pibu","Controls","bilabial","StopControls",NA,NA,NA,NA,0,14,14,39,NA,NA,NA,NA,"No",6.008,24,FALSE,18,59.9136642964,NA,"American English","VSH_Exp2","2016_Mar_03_1204",NA
"Recordings/dadi.wav","yes","d","d","a","yes","i","dadi","Test","alveolar","OldTestStimuli",NA,NA,NA,NA,0,15,15,7,NA,NA,NA,NA,"Yes",2.136,24,FALSE,18,59.9136642964,NA,"American English","VSH_Exp2","2016_Mar_03_1204",NA
"Recordings/zavi.wav","yes","z","v","a","no","i","zavi","Test","alveolar","OldTestStimuli",NA,NA,NA,NA,0,16,16,0,NA,NA,NA,NA,"Yes",2.256,24,FALSE,18,59.9136642964,NA,"American English","VSH_Exp2","2016_Mar_03_1204",NA
"Recordings/fufa.wav","no","f","f","u","no","a","fufa","Test","bilabial","OldTestStimuli",NA,NA,NA,NA,0,17,17,6,NA,NA,NA,NA,"Yes",2.571,24,FALSE,18,59.9136642964,NA,"American English","VSH_Exp2","2016_Mar_03_1204",NA
"Recordings/budi.wav","yes","b","d","u","yes","i","budi","Test","bilabial","NewConsTestStimuli",NA,NA,NA,NA,0,18,18,12,NA,NA,NA,NA,"Yes",4.039,24,FALSE,18,59.9136642964,NA,"American English","VSH_Exp2","2016_Mar_03_1204",NA
"Recordings/susi.wav","no","s","s","u","no","i","susi","Test","alveolar","NewWordTestStimuli",NA,NA,NA,NA,0,19,19,29,NA,NA,NA,NA,"Yes",5.625,24,FALSE,18,59.9136642964,NA,"American English","VSH_Exp2","2016_Mar_03_1204",NA
"Recordings/dudi.wav","yes","d","d","u","yes","i","dudi","Test","alveolar","OldTestStimuli",NA,NA,NA,NA,0,20,20,3,NA,NA,NA,NA,"Yes",2.306,24,FALSE,18,59.9136642964,NA,"American English","VSH_Exp2","2016_Mar_03_1204",NA
"Recordings/badu.wav","yes","b","d","a","yes","u","badu","Test","bilabial","NewConsTestStimuli",NA,NA,NA,NA,0,21,21,14,NA,NA,NA,NA,"No",8.746,24,FALSE,18,59.9136642964,NA,"American English","VSH_Exp2","2016_Mar_03_1204",NA
"Recordings/vavu.wav","yes","v","v","a","no","u","vavu","Test","bilabial","OldTestStimuli",NA,NA,NA,NA,0,22,22,9,NA,NA,NA,NA,"Yes",1.787,24,FALSE,18,59.9136642964,NA,"American English","VSH_Exp2","2016_Mar_03_1204",NA
"Recordings/vizu.wav","yes","v","z","i","no","u","vizu","Test","bilabial","NewWordTestStimuli",NA,NA,NA,NA,0,23,23,21,NA,NA,NA,NA,"Yes",2.821,24,FALSE,18,59.9136642964,NA,"American English","VSH_Exp2","2016_Mar_03_1204",NA
"Recordings/zidu.wav","yes","z","d","i","no","u","zidu","Controls","alveolar","VoicingControls",NA,NA,NA,NA,0,24,24,46,NA,NA,NA,NA,"No",3.689,24,FALSE,18,59.9136642964,NA,"American English","VSH_Exp2","2016_Mar_03_1204",NA
"Recordings/tasi.wav","no","t","s","a","yes","i","tasi","Controls","alveolar","VoicingControls",NA,NA,NA,NA,0,25,25,43,NA,NA,NA,NA,"No",4.373,24,FALSE,18,59.9136642964,NA,"American English","VSH_Exp2","2016_Mar_03_1204",NA
"Recordings/tapa.wav","no","t","p","a","yes","a","tapa","Test","alveolar","OldTestStimuli",NA,NA,NA,NA,0,26,26,4,NA,NA,NA,NA,"Yes",2.49,24,FALSE,18,59.9136642964,NA,"American English","VSH_Exp2","2016_Mar_03_1204",NA
"Recordings/sadi.wav","no","s","d","a","no","i","sadi","Controls","alveolar","NoPatternControls",NA,NA,NA,NA,0,27,27,52,NA,NA,NA,NA,"No",9.813,24,FALSE,18,59.9136642964,NA,"American English","VSH_Exp2","2016_Mar_03_1204",NA
"Recordings/zata.wav","yes","z","t","a","no","a","zata","Controls","alveolar","NoPatternControls",NA,NA,NA,NA,0,28,28,56,NA,NA,NA,NA,"No",5.108,24,FALSE,18,59.9136642964,NA,"American English","VSH_Exp2","2016_Mar_03_1204",NA
"Recordings/tibu.wav","no","t","b","i","yes","u","tibu","Controls","alveolar","StopControls",NA,NA,NA,NA,0,29,29,31,NA,NA,NA,NA,"Yes",4.224,24,FALSE,18,59.9136642964,NA,"American English","VSH_Exp2","2016_Mar_03_1204",NA
"Recordings/dudu.wav","yes","d","d","u","yes","u","dudu","Test","alveolar","OldTestStimuli",NA,NA,NA,NA,0,30,30,8,NA,NA,NA,NA,"Yes",1.303,24,FALSE,18,59.9136642964,NA,"American English","VSH_Exp2","2016_Mar_03_1204",NA
"Recordings/tidi.wav","no","t","d","i","yes","i","tidi","Controls","alveolar","StopControls",NA,NA,NA,NA,0,31,31,33,NA,NA,NA,NA,"No",1.988,24,FALSE,18,59.9136642964,NA,"American English","VSH_Exp2","2016_Mar_03_1204",NA
"Recordings/fuba.wav","no","f","b","u","no","a","fuba","Controls","bilabial","NoPatternControls",NA,NA,NA,NA,0,32,32,54,NA,NA,NA,NA,"No",3.189,24,FALSE,18,59.9136642964,NA,"American English","VSH_Exp2","2016_Mar_03_1204",NA
"Recordings/pifi.wav","no","p","f","i","yes","i","pifi","Controls","bilabial","VoicingControls",NA,NA,NA,NA,0,33,33,40,NA,NA,NA,NA,"No",2.588,24,FALSE,18,59.9136642964,NA,"American English","VSH_Exp2","2016_Mar_03_1204",NA
"Recordings/pibi.wav","no","p","b","i","yes","i","pibi","Controls","bilabial","StopControls",NA,NA,NA,NA,0,34,34,30,NA,NA,NA,NA,"Yes",3.406,24,FALSE,18,59.9136642964,NA,"American English","VSH_Exp2","2016_Mar_03_1204",NA
"Recordings/dubu.wav","yes","d","b","u","yes","u","dubu","Test","alveolar","NewConsTestStimuli",NA,NA,NA,NA,0,35,35,13,NA,NA,NA,NA,"Yes",6.993,24,FALSE,18,59.9136642964,NA,"American English","VSH_Exp2","2016_Mar_03_1204",NA
"Recordings/sasu.wav","no","s","s","a","no","u","sasu","Test","alveolar","NewWordTestStimuli",NA,NA,NA,NA,0,36,36,20,NA,NA,NA,NA,"Yes",4.407,24,FALSE,18,59.9136642964,NA,"American English","VSH_Exp2","2016_Mar_03_1204",NA
"Recordings/dabu.wav","yes","d","b","a","yes","u","dabu","Test","alveolar","NewConsTestStimuli",NA,NA,NA,NA,0,37,37,16,NA,NA,NA,NA,"No",8.93,24,FALSE,18,59.9136642964,NA,"American English","VSH_Exp2","2016_Mar_03_1204",NA
"Recordings/zuvi.wav","yes","z","v","u","no","i","zuvi","Test","alveolar","OldTestStimuli",NA,NA,NA,NA,0,38,38,2,NA,NA,NA,NA,"Yes",2.489,24,FALSE,18,59.9136642964,NA,"American English","VSH_Exp2","2016_Mar_03_1204",NA
"Recordings/tuvi.wav","no","t","v","u","yes","i","tuvi","Controls","alveolar","NoPatternControls",NA,NA,NA,NA,0,39,39,51,NA,NA,NA,NA,"No",5.291,24,FALSE,18,59.9136642964,NA,"American English","VSH_Exp2","2016_Mar_03_1204",NA
"Recordings/titi.wav","no","t","t","i","yes","i","titi","Test","alveolar","NewWordTestStimuli",NA,NA,NA,NA,0,40,40,23,NA,NA,NA,NA,"Yes",6.71,24,FALSE,18,59.9136642964,NA,"American English","VSH_Exp2","2016_Mar_03_1204",NA
"Recordings/fizi.wav","no","f","z","i","no","i","fizi","Controls","bilabial","StopControls",NA,NA,NA,NA,0,41,41,34,NA,NA,NA,NA,"No",4.941,24,FALSE,18,59.9136642964,NA,"American English","VSH_Exp2","2016_Mar_03_1204",NA
"Recordings/zisu.wav","yes","z","s","i","no","u","zisu","Controls","alveolar","StopControls",NA,NA,NA,NA,0,42,42,36,NA,NA,NA,NA,"No",6.342,24,FALSE,18,59.9136642964,NA,"American English","VSH_Exp2","2016_Mar_03_1204",NA
"Recordings/suzi.wav","no","s","z","u","no","i","suzi","Controls","alveolar","StopControls",NA,NA,NA,NA,0,43,43,32,NA,NA,NA,NA,"Yes",4.89,24,FALSE,18,59.9136642964,NA,"American English","VSH_Exp2","2016_Mar_03_1204",NA
"Recordings/sisi.wav","no","s","s","i","no","i","sisi","Test","alveolar","NewWordTestStimuli",NA,NA,NA,NA,0,44,44,22,NA,NA,NA,NA,"Yes",5.34,24,FALSE,18,59.9136642964,NA,"American English","VSH_Exp2","2016_Mar_03_1204",NA
"Recordings/dibi.wav","yes","d","b","i","yes","i","dibi","Test","alveolar","NewConsTestStimuli",NA,NA,NA,NA,0,45,45,17,NA,NA,NA,NA,"No",5.358,24,FALSE,18,59.9136642964,NA,"American English","VSH_Exp2","2016_Mar_03_1204",NA
"Recordings/vadu.wav","yes","v","d","a","no","u","vadu","Controls","bilabial","VoicingControls",NA,NA,NA,NA,0,46,46,47,NA,NA,NA,NA,"No",7.444,24,FALSE,18,59.9136642964,NA,"American English","VSH_Exp2","2016_Mar_03_1204",NA
"Recordings/pifu.wav","no","p","f","i","yes","u","pifu","Controls","bilabial","VoicingControls",NA,NA,NA,NA,0,47,47,49,NA,NA,NA,NA,"No",9.562,24,FALSE,18,59.9136642964,NA,"American English","VSH_Exp2","2016_Mar_03_1204",NA
"Recordings/zifa.wav","yes","z","f","i","no","a","zifa","Controls","alveolar","StopControls",NA,NA,NA,NA,0,48,48,35,NA,NA,NA,NA,"Yes",3.089,24,FALSE,18,59.9136642964,NA,"American English","VSH_Exp2","2016_Mar_03_1204",NA
"Recordings/duba.wav","yes","d","b","u","yes","a","duba","Test","alveolar","NewConsTestStimuli",NA,NA,NA,NA,0,49,49,15,NA,NA,NA,NA,"Yes",2.405,24,FALSE,18,59.9136642964,NA,"American English","VSH_Exp2","2016_Mar_03_1204",NA
"Recordings/sutu.wav","no","s","t","u","no","u","sutu","Controls","alveolar","VoicingControls",NA,NA,NA,NA,0,50,50,42,NA,NA,NA,NA,"No",3.356,24,FALSE,18,59.9136642964,NA,"American English","VSH_Exp2","2016_Mar_03_1204",NA
"Recordings/didu.wav","yes","d","d","i","yes","u","didu","Test","alveolar","OldTestStimuli",NA,NA,NA,NA,0,51,51,5,NA,NA,NA,NA,"Yes",2.589,24,FALSE,18,59.9136642964,NA,"American English","VSH_Exp2","2016_Mar_03_1204",NA
"Recordings/bada.wav","yes","b","d","a","yes","a","bada","Test","bilabial","NewConsTestStimuli",NA,NA,NA,NA,0,52,52,19,NA,NA,NA,NA,"No",6.994,24,FALSE,18,59.9136642964,NA,"American English","VSH_Exp2","2016_Mar_03_1204",NA
"Recordings/suva.wav","no","s","v","u","no","a","suva","Controls","alveolar","StopControls",NA,NA,NA,NA,0,53,53,38,NA,NA,NA,NA,"Yes",1.32,24,FALSE,18,59.9136642964,NA,"American English","VSH_Exp2","2016_Mar_03_1204",NA
"Recordings/vuva.wav","yes","v","v","u","no","a","vuva","Test","bilabial","NewWordTestStimuli",NA,NA,NA,NA,0,54,54,26,NA,NA,NA,NA,"Yes",2.538,24,FALSE,18,59.9136642964,NA,"American English","VSH_Exp2","2016_Mar_03_1204",NA
"Recordings/vasu.wav","yes","v","s","a","no","u","vasu","Controls","bilabial","StopControls",NA,NA,NA,NA,0,55,55,37,NA,NA,NA,NA,"Yes",2.839,24,FALSE,18,59.9136642964,NA,"American English","VSH_Exp2","2016_Mar_03_1204",NA
"Recordings/budu.wav","yes","b","d","u","yes","u","budu","Test","bilabial","NewConsTestStimuli",NA,NA,NA,NA,0,56,56,10,NA,NA,NA,NA,"No",7.093,24,FALSE,18,59.9136642964,NA,"American English","VSH_Exp2","2016_Mar_03_1204",NA
"Recordings/pizi.wav","no","p","z","i","yes","i","pizi","Controls","bilabial","NoPatternControls",NA,NA,NA,NA,0,57,57,50,NA,NA,NA,NA,"No",5.424,24,FALSE,18,59.9136642964,NA,"American English","VSH_Exp2","2016_Mar_03_1204",NA
"Recordings/tifa.wav","no","t","f","i","yes","a","tifa","Controls","alveolar","VoicingControls",NA,NA,NA,NA,0,58,58,41,NA,NA,NA,NA,"No",6.875,24,FALSE,18,59.9136642964,NA,"American English","VSH_Exp2","2016_Mar_03_1204",NA
"Recordings/ziba.wav","yes","z","b","i","no","a","ziba","Controls","alveolar","VoicingControls",NA,NA,NA,NA,0,59,59,45,NA,NA,NA,NA,"Yes",2.939,24,FALSE,18,59.9136642964,NA,"American English","VSH_Exp2","2016_Mar_03_1204",NA
