"SOUND","VOICING","SEGMENT","SEGMENT3","SEGMENT2","STOP","SEGMENT4","STIMULUS","GENERAL_TYPE","PLACE","TYPE","trials.thisRepN","trials.thisTrialN","trials.thisN","trials.thisIndex","trials_2.thisRepN","trials_2.thisTrialN","trials_2.thisN","trials_2.thisIndex","SpaceBar.keys","SpaceBar.rt","key_resp_2.keys","key_resp_2.rt","rating.response","rating.rt","participant","Gender","Age","frameRate","OtherLanguages","NativeLanguage","expName","date","X34"
NA,NA,NA,NA,NA,NA,NA,NA,NA,NA,NA,NA,NA,NA,NA,NA,NA,NA,NA,"space",2.60384106636,NA,NA,NA,NA,25,FALSE,20,60.8550133555,NA,"American English","VSH_Exp2","2016_Mar_03_1307",NA
"Recordings/safu.wav","no","s","f","a","no","u","safu","Training","alveolar","TrainingItems",0,0,0,86,NA,NA,NA,NA,NA,NA,NA,NA,NA,NA,25,FALSE,20,60.8550133555,NA,"American English","VSH_Exp2","2016_Mar_03_1307",NA
"Recordings/sasa.wav","no","s","s","a","no","a","sasa","Training","alveolar","TrainingItems",0,1,1,59,NA,NA,NA,NA,NA,NA,NA,NA,NA,NA,25,FALSE,20,60.8550133555,NA,"American English","VSH_Exp2","2016_Mar_03_1307",NA
"Recordings/buda.wav","yes","b","d","u","yes","a","buda","Training","bilabial","TrainingItems",0,2,2,1,NA,NA,NA,NA,NA,NA,NA,NA,NA,NA,25,FALSE,20,60.8550133555,NA,"American English","VSH_Exp2","2016_Mar_03_1307",NA
"Recordings/zuvi.wav","yes","z","v","u","no","i","zuvi","Training","alveolar","TrainingItems",0,3,3,85,NA,NA,NA,NA,NA,NA,NA,NA,NA,NA,25,FALSE,20,60.8550133555,NA,"American English","VSH_Exp2","2016_Mar_03_1307",NA
"Recordings/dadu.wav","yes","d","d","a","yes","u","dadu","Training","alveolar","TrainingItems",0,4,4,87,NA,NA,NA,NA,NA,NA,NA,NA,NA,NA,25,FALSE,20,60.8550133555,NA,"American English","VSH_Exp2","2016_Mar_03_1307",NA
"Recordings/fisu.wav","no","f","s","i","no","u","fisu","Training","bilabial","TrainingItems",0,5,5,56,NA,NA,NA,NA,NA,NA,NA,NA,NA,NA,25,FALSE,20,60.8550133555,NA,"American English","VSH_Exp2","2016_Mar_03_1307",NA
"Recordings/vava.wav","yes","v","v","a","no","a","vava","Training","bilabial","TrainingItems",0,6,6,73,NA,NA,NA,NA,NA,NA,NA,NA,NA,NA,25,FALSE,20,60.8550133555,NA,"American English","VSH_Exp2","2016_Mar_03_1307",NA
"Recordings/safa.wav","no","s","f","a","no","a","safa","Training","alveolar","TrainingItems",0,7,7,81,NA,NA,NA,NA,NA,NA,NA,NA,NA,NA,25,FALSE,20,60.8550133555,NA,"American English","VSH_Exp2","2016_Mar_03_1307",NA
"Recordings/fifi.wav","no","f","f","i","no","i","fifi","Training","bilabial","TrainingItems",0,8,8,29,NA,NA,NA,NA,NA,NA,NA,NA,NA,NA,25,FALSE,20,60.8550133555,NA,"American English","VSH_Exp2","2016_Mar_03_1307",NA
"Recordings/fafi.wav","no","f","f","a","no","i","fafi","Training","bilabial","TrainingItems",0,9,9,10,NA,NA,NA,NA,NA,NA,NA,NA,NA,NA,25,FALSE,20,60.8550133555,NA,"American English","VSH_Exp2","2016_Mar_03_1307",NA
"Recordings/buba.wav","yes","b","b","u","yes","a","buba","Training","bilabial","TrainingItems",0,10,10,94,NA,NA,NA,NA,NA,NA,NA,NA,NA,NA,25,FALSE,20,60.8550133555,NA,"American English","VSH_Exp2","2016_Mar_03_1307",NA
"Recordings/pupa.wav","no","p","p","u","yes","a","pupa","Training","bilabial","TrainingItems",0,11,11,47,NA,NA,NA,NA,NA,NA,NA,NA,NA,NA,25,FALSE,20,60.8550133555,NA,"American English","VSH_Exp2","2016_Mar_03_1307",NA
"Recordings/tati.wav","no","t","t","a","yes","i","tati","Training","alveolar","TrainingItems",0,12,12,82,NA,NA,NA,NA,NA,NA,NA,NA,NA,NA,25,FALSE,20,60.8550133555,NA,"American English","VSH_Exp2","2016_Mar_03_1307",NA
"Recordings/zavu.wav","yes","z","v","a","no","u","zavu","Training","alveolar","TrainingItems",0,13,13,46,NA,NA,NA,NA,NA,NA,NA,NA,NA,NA,25,FALSE,20,60.8550133555,NA,"American English","VSH_Exp2","2016_Mar_03_1307",NA
"Recordings/zavi.wav","yes","z","v","a","no","i","zavi","Training","alveolar","TrainingItems",0,14,14,55,NA,NA,NA,NA,NA,NA,NA,NA,NA,NA,25,FALSE,20,60.8550133555,NA,"American English","VSH_Exp2","2016_Mar_03_1307",NA
"Recordings/vaza.wav","yes","v","z","a","no","a","vaza","Training","bilabial","TrainingItems",0,15,15,9,NA,NA,NA,NA,NA,NA,NA,NA,NA,NA,25,FALSE,20,60.8550133555,NA,"American English","VSH_Exp2","2016_Mar_03_1307",NA
"Recordings/vivi.wav","yes","v","v","i","no","i","vivi","Training","bilabial","TrainingItems",0,16,16,68,NA,NA,NA,NA,NA,NA,NA,NA,NA,NA,25,FALSE,20,60.8550133555,NA,"American English","VSH_Exp2","2016_Mar_03_1307",NA
"Recordings/pupu.wav","no","p","p","u","yes","u","pupu","Training","bilabial","TrainingItems",0,17,17,4,NA,NA,NA,NA,NA,NA,NA,NA,NA,NA,25,FALSE,20,60.8550133555,NA,"American English","VSH_Exp2","2016_Mar_03_1307",NA
"Recordings/duba.wav","yes","d","b","u","yes","a","duba","Training","alveolar","TrainingItems",0,18,18,23,NA,NA,NA,NA,NA,NA,NA,NA,NA,NA,25,FALSE,20,60.8550133555,NA,"American English","VSH_Exp2","2016_Mar_03_1307",NA
"Recordings/tutu.wav","no","t","t","u","yes","u","tutu","Training","alveolar","TrainingItems",0,19,19,93,NA,NA,NA,NA,NA,NA,NA,NA,NA,NA,25,FALSE,20,60.8550133555,NA,"American English","VSH_Exp2","2016_Mar_03_1307",NA
"Recordings/vizu.wav","yes","v","z","i","no","u","vizu","Training","bilabial","TrainingItems",0,20,20,54,NA,NA,NA,NA,NA,NA,NA,NA,NA,NA,25,FALSE,20,60.8550133555,NA,"American English","VSH_Exp2","2016_Mar_03_1307",NA
"Recordings/fusi.wav","no","f","s","u","no","i","fusi","Training","bilabial","TrainingItems",0,21,21,15,NA,NA,NA,NA,NA,NA,NA,NA,NA,NA,25,FALSE,20,60.8550133555,NA,"American English","VSH_Exp2","2016_Mar_03_1307",NA
"Recordings/vuza.wav","yes","v","z","u","no","a","vuza","Training","bilabial","TrainingItems",0,22,22,12,NA,NA,NA,NA,NA,NA,NA,NA,NA,NA,25,FALSE,20,60.8550133555,NA,"American English","VSH_Exp2","2016_Mar_03_1307",NA
"Recordings/duda.wav","yes","d","d","u","yes","a","duda","Training","alveolar","TrainingItems",0,23,23,84,NA,NA,NA,NA,NA,NA,NA,NA,NA,NA,25,FALSE,20,60.8550133555,NA,"American English","VSH_Exp2","2016_Mar_03_1307",NA
"Recordings/vuvu.wav","yes","v","v","u","no","u","vuvu","Training","bilabial","TrainingItems",0,24,24,32,NA,NA,NA,NA,NA,NA,NA,NA,NA,NA,25,FALSE,20,60.8550133555,NA,"American English","VSH_Exp2","2016_Mar_03_1307",NA
"Recordings/budu.wav","yes","b","d","u","yes","u","budu","Training","bilabial","TrainingItems",0,25,25,90,NA,NA,NA,NA,NA,NA,NA,NA,NA,NA,25,FALSE,20,60.8550133555,NA,"American English","VSH_Exp2","2016_Mar_03_1307",NA
"Recordings/bidu.wav","yes","b","d","i","yes","u","bidu","Training","bilabial","TrainingItems",0,26,26,27,NA,NA,NA,NA,NA,NA,NA,NA,NA,NA,25,FALSE,20,60.8550133555,NA,"American English","VSH_Exp2","2016_Mar_03_1307",NA
"Recordings/titu.wav","no","t","t","i","yes","u","titu","Training","alveolar","TrainingItems",0,27,27,2,NA,NA,NA,NA,NA,NA,NA,NA,NA,NA,25,FALSE,20,60.8550133555,NA,"American English","VSH_Exp2","2016_Mar_03_1307",NA
"Recordings/vivu.wav","yes","v","v","i","no","u","vivu","Training","bilabial","TrainingItems",0,28,28,36,NA,NA,NA,NA,NA,NA,NA,NA,NA,NA,25,FALSE,20,60.8550133555,NA,"American English","VSH_Exp2","2016_Mar_03_1307",NA
"Recordings/fusa.wav","no","f","s","u","no","a","fusa","Training","bilabial","TrainingItems",0,29,29,79,NA,NA,NA,NA,NA,NA,NA,NA,NA,NA,25,FALSE,20,60.8550133555,NA,"American English","VSH_Exp2","2016_Mar_03_1307",NA
"Recordings/fufu.wav","no","f","f","u","no","u","fufu","Training","bilabial","TrainingItems",0,30,30,28,NA,NA,NA,NA,NA,NA,NA,NA,NA,NA,25,FALSE,20,60.8550133555,NA,"American English","VSH_Exp2","2016_Mar_03_1307",NA
"Recordings/viva.wav","yes","v","v","i","no","a","viva","Training","bilabial","TrainingItems",0,31,31,52,NA,NA,NA,NA,NA,NA,NA,NA,NA,NA,25,FALSE,20,60.8550133555,NA,"American English","VSH_Exp2","2016_Mar_03_1307",NA
"Recordings/fusu.wav","no","f","s","u","no","u","fusu","Training","bilabial","TrainingItems",0,32,32,40,NA,NA,NA,NA,NA,NA,NA,NA,NA,NA,25,FALSE,20,60.8550133555,NA,"American English","VSH_Exp2","2016_Mar_03_1307",NA
"Recordings/zuva.wav","yes","z","v","u","no","a","zuva","Training","alveolar","TrainingItems",0,33,33,7,NA,NA,NA,NA,NA,NA,NA,NA,NA,NA,25,FALSE,20,60.8550133555,NA,"American English","VSH_Exp2","2016_Mar_03_1307",NA
"Recordings/fifa.wav","no","f","f","i","no","a","fifa","Training","bilabial","TrainingItems",0,34,34,88,NA,NA,NA,NA,NA,NA,NA,NA,NA,NA,25,FALSE,20,60.8550133555,NA,"American English","VSH_Exp2","2016_Mar_03_1307",NA
"Recordings/fafa.wav","no","f","f","a","no","a","fafa","Training","bilabial","TrainingItems",0,35,35,20,NA,NA,NA,NA,NA,NA,NA,NA,NA,NA,25,FALSE,20,60.8550133555,NA,"American English","VSH_Exp2","2016_Mar_03_1307",NA
"Recordings/papa.wav","no","p","p","a","yes","a","papa","Training","bilabial","TrainingItems",0,36,36,67,NA,NA,NA,NA,NA,NA,NA,NA,NA,NA,25,FALSE,20,60.8550133555,NA,"American English","VSH_Exp2","2016_Mar_03_1307",NA
"Recordings/dudu.wav","yes","d","d","u","yes","u","dudu","Training","alveolar","TrainingItems",0,37,37,35,NA,NA,NA,NA,NA,NA,NA,NA,NA,NA,25,FALSE,20,60.8550133555,NA,"American English","VSH_Exp2","2016_Mar_03_1307",NA
"Recordings/bubu.wav","yes","b","b","u","yes","u","bubu","Training","bilabial","TrainingItems",0,38,38,76,NA,NA,NA,NA,NA,NA,NA,NA,NA,NA,25,FALSE,20,60.8550133555,NA,"American English","VSH_Exp2","2016_Mar_03_1307",NA
"Recordings/sisu.wav","no","s","s","i","no","u","sisu","Training","alveolar","TrainingItems",0,39,39,91,NA,NA,NA,NA,NA,NA,NA,NA,NA,NA,25,FALSE,20,60.8550133555,NA,"American English","VSH_Exp2","2016_Mar_03_1307",NA
"Recordings/zuza.wav","yes","z","z","u","no","a","zuza","Training","alveolar","TrainingItems",0,40,40,92,NA,NA,NA,NA,NA,NA,NA,NA,NA,NA,25,FALSE,20,60.8550133555,NA,"American English","VSH_Exp2","2016_Mar_03_1307",NA
"Recordings/pupi.wav","no","p","p","u","yes","i","pupi","Training","bilabial","TrainingItems",0,41,41,70,NA,NA,NA,NA,NA,NA,NA,NA,NA,NA,25,FALSE,20,60.8550133555,NA,"American English","VSH_Exp2","2016_Mar_03_1307",NA
"Recordings/titi.wav","no","t","t","i","yes","i","titi","Training","alveolar","TrainingItems",0,42,42,41,NA,NA,NA,NA,NA,NA,NA,NA,NA,NA,25,FALSE,20,60.8550133555,NA,"American English","VSH_Exp2","2016_Mar_03_1307",NA
"Recordings/biba.wav","yes","b","b","i","yes","a","biba","Training","bilabial","TrainingItems",0,43,43,24,NA,NA,NA,NA,NA,NA,NA,NA,NA,NA,25,FALSE,20,60.8550133555,NA,"American English","VSH_Exp2","2016_Mar_03_1307",NA
"Recordings/sifa.wav","no","s","f","i","no","a","sifa","Training","alveolar","TrainingItems",0,44,44,89,NA,NA,NA,NA,NA,NA,NA,NA,NA,NA,25,FALSE,20,60.8550133555,NA,"American English","VSH_Exp2","2016_Mar_03_1307",NA
"Recordings/dadi.wav","yes","d","d","a","yes","i","dadi","Training","alveolar","TrainingItems",0,45,45,50,NA,NA,NA,NA,NA,NA,NA,NA,NA,NA,25,FALSE,20,60.8550133555,NA,"American English","VSH_Exp2","2016_Mar_03_1307",NA
"Recordings/baba.wav","yes","b","b","a","yes","a","baba","Training","bilabial","TrainingItems",0,46,46,77,NA,NA,NA,NA,NA,NA,NA,NA,NA,NA,25,FALSE,20,60.8550133555,NA,"American English","VSH_Exp2","2016_Mar_03_1307",NA
"Recordings/dabi.wav","yes","d","b","a","yes","i","dabi","Training","alveolar","TrainingItems",0,47,47,72,NA,NA,NA,NA,NA,NA,NA,NA,NA,NA,25,FALSE,20,60.8550133555,NA,"American English","VSH_Exp2","2016_Mar_03_1307",NA
"Recordings/fifu.wav","no","f","f","i","no","u","fifu","Training","bilabial","TrainingItems",0,48,48,66,NA,NA,NA,NA,NA,NA,NA,NA,NA,NA,25,FALSE,20,60.8550133555,NA,"American English","VSH_Exp2","2016_Mar_03_1307",NA
"Recordings/dada.wav","yes","d","d","a","yes","a","dada","Training","alveolar","TrainingItems",0,49,49,25,NA,NA,NA,NA,NA,NA,NA,NA,NA,NA,25,FALSE,20,60.8550133555,NA,"American English","VSH_Exp2","2016_Mar_03_1307",NA
"Recordings/sisi.wav","no","s","s","i","no","i","sisi","Training","alveolar","TrainingItems",0,50,50,26,NA,NA,NA,NA,NA,NA,NA,NA,NA,NA,25,FALSE,20,60.8550133555,NA,"American English","VSH_Exp2","2016_Mar_03_1307",NA
"Recordings/vavi.wav","yes","v","v","a","no","i","vavi","Training","bilabial","TrainingItems",0,51,51,95,NA,NA,NA,NA,NA,NA,NA,NA,NA,NA,25,FALSE,20,60.8550133555,NA,"American English","VSH_Exp2","2016_Mar_03_1307",NA
"Recordings/tuti.wav","no","t","t","u","yes","i","tuti","Training","alveolar","TrainingItems",0,52,52,99,NA,NA,NA,NA,NA,NA,NA,NA,NA,NA,25,FALSE,20,60.8550133555,NA,"American English","VSH_Exp2","2016_Mar_03_1307",NA
"Recordings/badu.wav","yes","b","d","a","yes","u","badu","Training","bilabial","TrainingItems",0,53,53,97,NA,NA,NA,NA,NA,NA,NA,NA,NA,NA,25,FALSE,20,60.8550133555,NA,"American English","VSH_Exp2","2016_Mar_03_1307",NA
"Recordings/fisa.wav","no","f","s","i","no","a","fisa","Training","bilabial","TrainingItems",0,54,54,48,NA,NA,NA,NA,NA,NA,NA,NA,NA,NA,25,FALSE,20,60.8550133555,NA,"American English","VSH_Exp2","2016_Mar_03_1307",NA
"Recordings/sasu.wav","no","s","s","a","no","u","sasu","Training","alveolar","TrainingItems",0,55,55,38,NA,NA,NA,NA,NA,NA,NA,NA,NA,NA,25,FALSE,20,60.8550133555,NA,"American English","VSH_Exp2","2016_Mar_03_1307",NA
"Recordings/bida.wav","yes","b","d","i","yes","a","bida","Training","bilabial","TrainingItems",0,56,56,13,NA,NA,NA,NA,NA,NA,NA,NA,NA,NA,25,FALSE,20,60.8550133555,NA,"American English","VSH_Exp2","2016_Mar_03_1307",NA
"Recordings/didu.wav","yes","d","d","i","yes","u","didu","Training","alveolar","TrainingItems",0,57,57,78,NA,NA,NA,NA,NA,NA,NA,NA,NA,NA,25,FALSE,20,60.8550133555,NA,"American English","VSH_Exp2","2016_Mar_03_1307",NA
"Recordings/susu.wav","no","s","s","u","no","u","susu","Training","alveolar","TrainingItems",0,58,58,51,NA,NA,NA,NA,NA,NA,NA,NA,NA,NA,25,FALSE,20,60.8550133555,NA,"American English","VSH_Exp2","2016_Mar_03_1307",NA
"Recordings/vazu.wav","yes","v","z","a","no","u","vazu","Training","bilabial","TrainingItems",0,59,59,60,NA,NA,NA,NA,NA,NA,NA,NA,NA,NA,25,FALSE,20,60.8550133555,NA,"American English","VSH_Exp2","2016_Mar_03_1307",NA
"Recordings/safi.wav","no","s","f","a","no","i","safi","Training","alveolar","TrainingItems",0,60,60,5,NA,NA,NA,NA,NA,NA,NA,NA,NA,NA,25,FALSE,20,60.8550133555,NA,"American English","VSH_Exp2","2016_Mar_03_1307",NA
"Recordings/fufa.wav","no","f","f","u","no","a","fufa","Training","bilabial","TrainingItems",0,61,61,33,NA,NA,NA,NA,NA,NA,NA,NA,NA,NA,25,FALSE,20,60.8550133555,NA,"American English","VSH_Exp2","2016_Mar_03_1307",NA
"Recordings/vuzi.wav","yes","v","z","u","no","i","vuzi","Training","bilabial","TrainingItems",0,62,62,14,NA,NA,NA,NA,NA,NA,NA,NA,NA,NA,25,FALSE,20,60.8550133555,NA,"American English","VSH_Exp2","2016_Mar_03_1307",NA
"Recordings/fufi.wav","no","f","f","u","no","i","fufi","Training","bilabial","TrainingItems",0,63,63,6,NA,NA,NA,NA,NA,NA,NA,NA,NA,NA,25,FALSE,20,60.8550133555,NA,"American English","VSH_Exp2","2016_Mar_03_1307",NA
"Recordings/vizi.wav","yes","v","z","i","no","i","vizi","Training","bilabial","TrainingItems",0,64,64,11,NA,NA,NA,NA,NA,NA,NA,NA,NA,NA,25,FALSE,20,60.8550133555,NA,"American English","VSH_Exp2","2016_Mar_03_1307",NA
"Recordings/vavu.wav","yes","v","v","a","no","u","vavu","Training","bilabial","TrainingItems",0,65,65,44,NA,NA,NA,NA,NA,NA,NA,NA,NA,NA,25,FALSE,20,60.8550133555,NA,"American English","VSH_Exp2","2016_Mar_03_1307",NA
"Recordings/papu.wav","no","p","p","a","yes","u","papu","Training","bilabial","TrainingItems",0,66,66,61,NA,NA,NA,NA,NA,NA,NA,NA,NA,NA,25,FALSE,20,60.8550133555,NA,"American English","VSH_Exp2","2016_Mar_03_1307",NA
"Recordings/zaza.wav","yes","z","z","a","no","a","zaza","Training","alveolar","TrainingItems",0,67,67,34,NA,NA,NA,NA,NA,NA,NA,NA,NA,NA,25,FALSE,20,60.8550133555,NA,"American English","VSH_Exp2","2016_Mar_03_1307",NA
"Recordings/sufi.wav","no","s","f","u","no","i","sufi","Training","alveolar","TrainingItems",0,68,68,74,NA,NA,NA,NA,NA,NA,NA,NA,NA,NA,25,FALSE,20,60.8550133555,NA,"American English","VSH_Exp2","2016_Mar_03_1307",NA
"Recordings/bidi.wav","yes","b","d","i","yes","i","bidi","Training","bilabial","TrainingItems",0,69,69,75,NA,NA,NA,NA,NA,NA,NA,NA,NA,NA,25,FALSE,20,60.8550133555,NA,"American English","VSH_Exp2","2016_Mar_03_1307",NA
"Recordings/fisi.wav","no","f","s","i","no","i","fisi","Training","bilabial","TrainingItems",0,70,70,3,NA,NA,NA,NA,NA,NA,NA,NA,NA,NA,25,FALSE,20,60.8550133555,NA,"American English","VSH_Exp2","2016_Mar_03_1307",NA
"Recordings/vuva.wav","yes","v","v","u","no","a","vuva","Training","bilabial","TrainingItems",0,71,71,39,NA,NA,NA,NA,NA,NA,NA,NA,NA,NA,25,FALSE,20,60.8550133555,NA,"American English","VSH_Exp2","2016_Mar_03_1307",NA
"Recordings/vuvi.wav","yes","v","v","u","no","i","vuvi","Training","bilabial","TrainingItems",0,72,72,65,NA,NA,NA,NA,NA,NA,NA,NA,NA,NA,25,FALSE,20,60.8550133555,NA,"American English","VSH_Exp2","2016_Mar_03_1307",NA
"Recordings/tata.wav","no","t","t","a","yes","a","tata","Training","alveolar","TrainingItems",0,73,73,17,NA,NA,NA,NA,NA,NA,NA,NA,NA,NA,25,FALSE,20,60.8550133555,NA,"American English","VSH_Exp2","2016_Mar_03_1307",NA
"Recordings/sifu.wav","no","s","f","i","no","u","sifu","Training","alveolar","TrainingItems",0,74,74,58,NA,NA,NA,NA,NA,NA,NA,NA,NA,NA,25,FALSE,20,60.8550133555,NA,"American English","VSH_Exp2","2016_Mar_03_1307",NA
"Recordings/zuvu.wav","yes","z","v","u","no","u","zuvu","Training","alveolar","TrainingItems",0,75,75,45,NA,NA,NA,NA,NA,NA,NA,NA,NA,NA,25,FALSE,20,60.8550133555,NA,"American English","VSH_Exp2","2016_Mar_03_1307",NA
"Recordings/didi.wav","yes","d","d","i","yes","i","didi","Training","alveolar","TrainingItems",0,76,76,0,NA,NA,NA,NA,NA,NA,NA,NA,NA,NA,25,FALSE,20,60.8550133555,NA,"American English","VSH_Exp2","2016_Mar_03_1307",NA
"Recordings/zivi.wav","yes","z","v","i","no","i","zivi","Training","alveolar","TrainingItems",0,77,77,22,NA,NA,NA,NA,NA,NA,NA,NA,NA,NA,25,FALSE,20,60.8550133555,NA,"American English","VSH_Exp2","2016_Mar_03_1307",NA
"Recordings/ziza.wav","yes","z","z","i","no","a","ziza","Training","alveolar","TrainingItems",0,78,78,63,NA,NA,NA,NA,NA,NA,NA,NA,NA,NA,25,FALSE,20,60.8550133555,NA,"American English","VSH_Exp2","2016_Mar_03_1307",NA
"Recordings/pipu.wav","no","p","p","i","yes","u","pipu","Training","bilabial","TrainingItems",0,79,79,42,NA,NA,NA,NA,NA,NA,NA,NA,NA,NA,25,FALSE,20,60.8550133555,NA,"American English","VSH_Exp2","2016_Mar_03_1307",NA
"Recordings/bubi.wav","yes","b","b","u","yes","i","bubi","Training","bilabial","TrainingItems",0,80,80,21,NA,NA,NA,NA,NA,NA,NA,NA,NA,NA,25,FALSE,20,60.8550133555,NA,"American English","VSH_Exp2","2016_Mar_03_1307",NA
"Recordings/babi.wav","yes","b","b","a","yes","i","babi","Training","bilabial","TrainingItems",0,81,81,69,NA,NA,NA,NA,NA,NA,NA,NA,NA,NA,25,FALSE,20,60.8550133555,NA,"American English","VSH_Exp2","2016_Mar_03_1307",NA
"Recordings/zuzu.wav","yes","z","z","u","no","u","zuzu","Training","alveolar","TrainingItems",0,82,82,53,NA,NA,NA,NA,NA,NA,NA,NA,NA,NA,25,FALSE,20,60.8550133555,NA,"American English","VSH_Exp2","2016_Mar_03_1307",NA
"Recordings/fasa.wav","no","f","s","a","no","a","fasa","Training","bilabial","TrainingItems",0,83,83,80,NA,NA,NA,NA,NA,NA,NA,NA,NA,NA,25,FALSE,20,60.8550133555,NA,"American English","VSH_Exp2","2016_Mar_03_1307",NA
"Recordings/bada.wav","yes","b","d","a","yes","a","bada","Training","bilabial","TrainingItems",0,84,84,8,NA,NA,NA,NA,NA,NA,NA,NA,NA,NA,25,FALSE,20,60.8550133555,NA,"American English","VSH_Exp2","2016_Mar_03_1307",NA
"Recordings/dudi.wav","yes","d","d","u","yes","i","dudi","Training","alveolar","TrainingItems",0,85,85,98,NA,NA,NA,NA,NA,NA,NA,NA,NA,NA,25,FALSE,20,60.8550133555,NA,"American English","VSH_Exp2","2016_Mar_03_1307",NA
"Recordings/sisa.wav","no","s","s","i","no","a","sisa","Training","alveolar","TrainingItems",0,86,86,96,NA,NA,NA,NA,NA,NA,NA,NA,NA,NA,25,FALSE,20,60.8550133555,NA,"American English","VSH_Exp2","2016_Mar_03_1307",NA
"Recordings/fasu.wav","no","f","s","a","no","u","fasu","Training","bilabial","TrainingItems",0,87,87,19,NA,NA,NA,NA,NA,NA,NA,NA,NA,NA,25,FALSE,20,60.8550133555,NA,"American English","VSH_Exp2","2016_Mar_03_1307",NA
"Recordings/dabu.wav","yes","d","b","a","yes","u","dabu","Training","alveolar","TrainingItems",0,88,88,37,NA,NA,NA,NA,NA,NA,NA,NA,NA,NA,25,FALSE,20,60.8550133555,NA,"American English","VSH_Exp2","2016_Mar_03_1307",NA
"Recordings/susa.wav","no","s","s","u","no","a","susa","Training","alveolar","TrainingItems",0,89,89,31,NA,NA,NA,NA,NA,NA,NA,NA,NA,NA,25,FALSE,20,60.8550133555,NA,"American English","VSH_Exp2","2016_Mar_03_1307",NA
"Recordings/budi.wav","yes","b","d","u","yes","i","budi","Training","bilabial","TrainingItems",0,90,90,43,NA,NA,NA,NA,NA,NA,NA,NA,NA,NA,25,FALSE,20,60.8550133555,NA,"American English","VSH_Exp2","2016_Mar_03_1307",NA
"Recordings/dida.wav","yes","d","d","i","yes","a","dida","Training","alveolar","TrainingItems",0,91,91,57,NA,NA,NA,NA,NA,NA,NA,NA,NA,NA,25,FALSE,20,60.8550133555,NA,"American English","VSH_Exp2","2016_Mar_03_1307",NA
"Recordings/zizu.wav","yes","z","z","i","no","u","zizu","Training","alveolar","TrainingItems",0,92,92,49,NA,NA,NA,NA,NA,NA,NA,NA,NA,NA,25,FALSE,20,60.8550133555,NA,"American English","VSH_Exp2","2016_Mar_03_1307",NA
"Recordings/dubi.wav","yes","d","b","u","yes","i","dubi","Training","alveolar","TrainingItems",0,93,93,83,NA,NA,NA,NA,NA,NA,NA,NA,NA,NA,25,FALSE,20,60.8550133555,NA,"American English","VSH_Exp2","2016_Mar_03_1307",NA
"Recordings/zuzi.wav","yes","z","z","u","no","i","zuzi","Training","alveolar","TrainingItems",0,94,94,62,NA,NA,NA,NA,NA,NA,NA,NA,NA,NA,25,FALSE,20,60.8550133555,NA,"American English","VSH_Exp2","2016_Mar_03_1307",NA
"Recordings/babu.wav","yes","b","b","a","yes","u","babu","Training","bilabial","TrainingItems",0,95,95,71,NA,NA,NA,NA,NA,NA,NA,NA,NA,NA,25,FALSE,20,60.8550133555,NA,"American English","VSH_Exp2","2016_Mar_03_1307",NA
"Recordings/zazi.wav","yes","z","z","a","no","i","zazi","Training","alveolar","TrainingItems",0,96,96,16,NA,NA,NA,NA,NA,NA,NA,NA,NA,NA,25,FALSE,20,60.8550133555,NA,"American English","VSH_Exp2","2016_Mar_03_1307",NA
"Recordings/bibi.wav","yes","b","b","i","yes","i","bibi","Training","bilabial","TrainingItems",0,97,97,18,NA,NA,NA,NA,NA,NA,NA,NA,NA,NA,25,FALSE,20,60.8550133555,NA,"American English","VSH_Exp2","2016_Mar_03_1307",NA
"Recordings/tatu.wav","no","t","t","a","yes","u","tatu","Training","alveolar","TrainingItems",0,98,98,30,NA,NA,NA,NA,NA,NA,NA,NA,NA,NA,25,FALSE,20,60.8550133555,NA,"American English","VSH_Exp2","2016_Mar_03_1307",NA
"Recordings/zava.wav","yes","z","v","a","no","a","zava","Training","alveolar","TrainingItems",0,99,99,64,NA,NA,NA,NA,NA,NA,NA,NA,NA,NA,25,FALSE,20,60.8550133555,NA,"American English","VSH_Exp2","2016_Mar_03_1307",NA
"Recordings/dadu.wav","yes","d","d","a","yes","u","dadu","Training","alveolar","TrainingItems",1,0,100,87,NA,NA,NA,NA,NA,NA,NA,NA,NA,NA,25,FALSE,20,60.8550133555,NA,"American English","VSH_Exp2","2016_Mar_03_1307",NA
"Recordings/susu.wav","no","s","s","u","no","u","susu","Training","alveolar","TrainingItems",1,1,101,51,NA,NA,NA,NA,NA,NA,NA,NA,NA,NA,25,FALSE,20,60.8550133555,NA,"American English","VSH_Exp2","2016_Mar_03_1307",NA
"Recordings/fifa.wav","no","f","f","i","no","a","fifa","Training","bilabial","TrainingItems",1,2,102,88,NA,NA,NA,NA,NA,NA,NA,NA,NA,NA,25,FALSE,20,60.8550133555,NA,"American English","VSH_Exp2","2016_Mar_03_1307",NA
"Recordings/tatu.wav","no","t","t","a","yes","u","tatu","Training","alveolar","TrainingItems",1,3,103,30,NA,NA,NA,NA,NA,NA,NA,NA,NA,NA,25,FALSE,20,60.8550133555,NA,"American English","VSH_Exp2","2016_Mar_03_1307",NA
"Recordings/fusi.wav","no","f","s","u","no","i","fusi","Training","bilabial","TrainingItems",1,4,104,15,NA,NA,NA,NA,NA,NA,NA,NA,NA,NA,25,FALSE,20,60.8550133555,NA,"American English","VSH_Exp2","2016_Mar_03_1307",NA
"Recordings/safu.wav","no","s","f","a","no","u","safu","Training","alveolar","TrainingItems",1,5,105,86,NA,NA,NA,NA,NA,NA,NA,NA,NA,NA,25,FALSE,20,60.8550133555,NA,"American English","VSH_Exp2","2016_Mar_03_1307",NA
"Recordings/fisi.wav","no","f","s","i","no","i","fisi","Training","bilabial","TrainingItems",1,6,106,3,NA,NA,NA,NA,NA,NA,NA,NA,NA,NA,25,FALSE,20,60.8550133555,NA,"American English","VSH_Exp2","2016_Mar_03_1307",NA
"Recordings/dida.wav","yes","d","d","i","yes","a","dida","Training","alveolar","TrainingItems",1,7,107,57,NA,NA,NA,NA,NA,NA,NA,NA,NA,NA,25,FALSE,20,60.8550133555,NA,"American English","VSH_Exp2","2016_Mar_03_1307",NA
"Recordings/dadi.wav","yes","d","d","a","yes","i","dadi","Training","alveolar","TrainingItems",1,8,108,50,NA,NA,NA,NA,NA,NA,NA,NA,NA,NA,25,FALSE,20,60.8550133555,NA,"American English","VSH_Exp2","2016_Mar_03_1307",NA
"Recordings/fufu.wav","no","f","f","u","no","u","fufu","Training","bilabial","TrainingItems",1,9,109,28,NA,NA,NA,NA,NA,NA,NA,NA,NA,NA,25,FALSE,20,60.8550133555,NA,"American English","VSH_Exp2","2016_Mar_03_1307",NA
"Recordings/dabu.wav","yes","d","b","a","yes","u","dabu","Training","alveolar","TrainingItems",1,10,110,37,NA,NA,NA,NA,NA,NA,NA,NA,NA,NA,25,FALSE,20,60.8550133555,NA,"American English","VSH_Exp2","2016_Mar_03_1307",NA
"Recordings/vuva.wav","yes","v","v","u","no","a","vuva","Training","bilabial","TrainingItems",1,11,111,39,NA,NA,NA,NA,NA,NA,NA,NA,NA,NA,25,FALSE,20,60.8550133555,NA,"American English","VSH_Exp2","2016_Mar_03_1307",NA
"Recordings/viva.wav","yes","v","v","i","no","a","viva","Training","bilabial","TrainingItems",1,12,112,52,NA,NA,NA,NA,NA,NA,NA,NA,NA,NA,25,FALSE,20,60.8550133555,NA,"American English","VSH_Exp2","2016_Mar_03_1307",NA
"Recordings/dabi.wav","yes","d","b","a","yes","i","dabi","Training","alveolar","TrainingItems",1,13,113,72,NA,NA,NA,NA,NA,NA,NA,NA,NA,NA,25,FALSE,20,60.8550133555,NA,"American English","VSH_Exp2","2016_Mar_03_1307",NA
"Recordings/babu.wav","yes","b","b","a","yes","u","babu","Training","bilabial","TrainingItems",1,14,114,71,NA,NA,NA,NA,NA,NA,NA,NA,NA,NA,25,FALSE,20,60.8550133555,NA,"American English","VSH_Exp2","2016_Mar_03_1307",NA
"Recordings/buba.wav","yes","b","b","u","yes","a","buba","Training","bilabial","TrainingItems",1,15,115,94,NA,NA,NA,NA,NA,NA,NA,NA,NA,NA,25,FALSE,20,60.8550133555,NA,"American English","VSH_Exp2","2016_Mar_03_1307",NA
"Recordings/vuvu.wav","yes","v","v","u","no","u","vuvu","Training","bilabial","TrainingItems",1,16,116,32,NA,NA,NA,NA,NA,NA,NA,NA,NA,NA,25,FALSE,20,60.8550133555,NA,"American English","VSH_Exp2","2016_Mar_03_1307",NA
"Recordings/dudu.wav","yes","d","d","u","yes","u","dudu","Training","alveolar","TrainingItems",1,17,117,35,NA,NA,NA,NA,NA,NA,NA,NA,NA,NA,25,FALSE,20,60.8550133555,NA,"American English","VSH_Exp2","2016_Mar_03_1307",NA
"Recordings/vuza.wav","yes","v","z","u","no","a","vuza","Training","bilabial","TrainingItems",1,18,118,12,NA,NA,NA,NA,NA,NA,NA,NA,NA,NA,25,FALSE,20,60.8550133555,NA,"American English","VSH_Exp2","2016_Mar_03_1307",NA
"Recordings/duba.wav","yes","d","b","u","yes","a","duba","Training","alveolar","TrainingItems",1,19,119,23,NA,NA,NA,NA,NA,NA,NA,NA,NA,NA,25,FALSE,20,60.8550133555,NA,"American English","VSH_Exp2","2016_Mar_03_1307",NA
"Recordings/vaza.wav","yes","v","z","a","no","a","vaza","Training","bilabial","TrainingItems",1,20,120,9,NA,NA,NA,NA,NA,NA,NA,NA,NA,NA,25,FALSE,20,60.8550133555,NA,"American English","VSH_Exp2","2016_Mar_03_1307",NA
"Recordings/tata.wav","no","t","t","a","yes","a","tata","Training","alveolar","TrainingItems",1,21,121,17,NA,NA,NA,NA,NA,NA,NA,NA,NA,NA,25,FALSE,20,60.8550133555,NA,"American English","VSH_Exp2","2016_Mar_03_1307",NA
"Recordings/bibi.wav","yes","b","b","i","yes","i","bibi","Training","bilabial","TrainingItems",1,22,122,18,NA,NA,NA,NA,NA,NA,NA,NA,NA,NA,25,FALSE,20,60.8550133555,NA,"American English","VSH_Exp2","2016_Mar_03_1307",NA
"Recordings/bada.wav","yes","b","d","a","yes","a","bada","Training","bilabial","TrainingItems",1,23,123,8,NA,NA,NA,NA,NA,NA,NA,NA,NA,NA,25,FALSE,20,60.8550133555,NA,"American English","VSH_Exp2","2016_Mar_03_1307",NA
"Recordings/bidi.wav","yes","b","d","i","yes","i","bidi","Training","bilabial","TrainingItems",1,24,124,75,NA,NA,NA,NA,NA,NA,NA,NA,NA,NA,25,FALSE,20,60.8550133555,NA,"American English","VSH_Exp2","2016_Mar_03_1307",NA
"Recordings/fusu.wav","no","f","s","u","no","u","fusu","Training","bilabial","TrainingItems",1,25,125,40,NA,NA,NA,NA,NA,NA,NA,NA,NA,NA,25,FALSE,20,60.8550133555,NA,"American English","VSH_Exp2","2016_Mar_03_1307",NA
"Recordings/vuvi.wav","yes","v","v","u","no","i","vuvi","Training","bilabial","TrainingItems",1,26,126,65,NA,NA,NA,NA,NA,NA,NA,NA,NA,NA,25,FALSE,20,60.8550133555,NA,"American English","VSH_Exp2","2016_Mar_03_1307",NA
"Recordings/pupi.wav","no","p","p","u","yes","i","pupi","Training","bilabial","TrainingItems",1,27,127,70,NA,NA,NA,NA,NA,NA,NA,NA,NA,NA,25,FALSE,20,60.8550133555,NA,"American English","VSH_Exp2","2016_Mar_03_1307",NA
"Recordings/zuvi.wav","yes","z","v","u","no","i","zuvi","Training","alveolar","TrainingItems",1,28,128,85,NA,NA,NA,NA,NA,NA,NA,NA,NA,NA,25,FALSE,20,60.8550133555,NA,"American English","VSH_Exp2","2016_Mar_03_1307",NA
"Recordings/zuzi.wav","yes","z","z","u","no","i","zuzi","Training","alveolar","TrainingItems",1,29,129,62,NA,NA,NA,NA,NA,NA,NA,NA,NA,NA,25,FALSE,20,60.8550133555,NA,"American English","VSH_Exp2","2016_Mar_03_1307",NA
"Recordings/biba.wav","yes","b","b","i","yes","a","biba","Training","bilabial","TrainingItems",1,30,130,24,NA,NA,NA,NA,NA,NA,NA,NA,NA,NA,25,FALSE,20,60.8550133555,NA,"American English","VSH_Exp2","2016_Mar_03_1307",NA
"Recordings/titu.wav","no","t","t","i","yes","u","titu","Training","alveolar","TrainingItems",1,31,131,2,NA,NA,NA,NA,NA,NA,NA,NA,NA,NA,25,FALSE,20,60.8550133555,NA,"American English","VSH_Exp2","2016_Mar_03_1307",NA
"Recordings/fafi.wav","no","f","f","a","no","i","fafi","Training","bilabial","TrainingItems",1,32,132,10,NA,NA,NA,NA,NA,NA,NA,NA,NA,NA,25,FALSE,20,60.8550133555,NA,"American English","VSH_Exp2","2016_Mar_03_1307",NA
"Recordings/vizi.wav","yes","v","z","i","no","i","vizi","Training","bilabial","TrainingItems",1,33,133,11,NA,NA,NA,NA,NA,NA,NA,NA,NA,NA,25,FALSE,20,60.8550133555,NA,"American English","VSH_Exp2","2016_Mar_03_1307",NA
"Recordings/pipu.wav","no","p","p","i","yes","u","pipu","Training","bilabial","TrainingItems",1,34,134,42,NA,NA,NA,NA,NA,NA,NA,NA,NA,NA,25,FALSE,20,60.8550133555,NA,"American English","VSH_Exp2","2016_Mar_03_1307",NA
"Recordings/fasu.wav","no","f","s","a","no","u","fasu","Training","bilabial","TrainingItems",1,35,135,19,NA,NA,NA,NA,NA,NA,NA,NA,NA,NA,25,FALSE,20,60.8550133555,NA,"American English","VSH_Exp2","2016_Mar_03_1307",NA
"Recordings/bida.wav","yes","b","d","i","yes","a","bida","Training","bilabial","TrainingItems",1,36,136,13,NA,NA,NA,NA,NA,NA,NA,NA,NA,NA,25,FALSE,20,60.8550133555,NA,"American English","VSH_Exp2","2016_Mar_03_1307",NA
"Recordings/susa.wav","no","s","s","u","no","a","susa","Training","alveolar","TrainingItems",1,37,137,31,NA,NA,NA,NA,NA,NA,NA,NA,NA,NA,25,FALSE,20,60.8550133555,NA,"American English","VSH_Exp2","2016_Mar_03_1307",NA
"Recordings/fifi.wav","no","f","f","i","no","i","fifi","Training","bilabial","TrainingItems",1,38,138,29,NA,NA,NA,NA,NA,NA,NA,NA,NA,NA,25,FALSE,20,60.8550133555,NA,"American English","VSH_Exp2","2016_Mar_03_1307",NA
"Recordings/bubi.wav","yes","b","b","u","yes","i","bubi","Training","bilabial","TrainingItems",1,39,139,21,NA,NA,NA,NA,NA,NA,NA,NA,NA,NA,25,FALSE,20,60.8550133555,NA,"American English","VSH_Exp2","2016_Mar_03_1307",NA
"Recordings/dada.wav","yes","d","d","a","yes","a","dada","Training","alveolar","TrainingItems",1,40,140,25,NA,NA,NA,NA,NA,NA,NA,NA,NA,NA,25,FALSE,20,60.8550133555,NA,"American English","VSH_Exp2","2016_Mar_03_1307",NA
"Recordings/bubu.wav","yes","b","b","u","yes","u","bubu","Training","bilabial","TrainingItems",1,41,141,76,NA,NA,NA,NA,NA,NA,NA,NA,NA,NA,25,FALSE,20,60.8550133555,NA,"American English","VSH_Exp2","2016_Mar_03_1307",NA
"Recordings/badu.wav","yes","b","d","a","yes","u","badu","Training","bilabial","TrainingItems",1,42,142,97,NA,NA,NA,NA,NA,NA,NA,NA,NA,NA,25,FALSE,20,60.8550133555,NA,"American English","VSH_Exp2","2016_Mar_03_1307",NA
"Recordings/didi.wav","yes","d","d","i","yes","i","didi","Training","alveolar","TrainingItems",1,43,143,0,NA,NA,NA,NA,NA,NA,NA,NA,NA,NA,25,FALSE,20,60.8550133555,NA,"American English","VSH_Exp2","2016_Mar_03_1307",NA
"Recordings/papu.wav","no","p","p","a","yes","u","papu","Training","bilabial","TrainingItems",1,44,144,61,NA,NA,NA,NA,NA,NA,NA,NA,NA,NA,25,FALSE,20,60.8550133555,NA,"American English","VSH_Exp2","2016_Mar_03_1307",NA
"Recordings/zivi.wav","yes","z","v","i","no","i","zivi","Training","alveolar","TrainingItems",1,45,145,22,NA,NA,NA,NA,NA,NA,NA,NA,NA,NA,25,FALSE,20,60.8550133555,NA,"American English","VSH_Exp2","2016_Mar_03_1307",NA
"Recordings/sifa.wav","no","s","f","i","no","a","sifa","Training","alveolar","TrainingItems",1,46,146,89,NA,NA,NA,NA,NA,NA,NA,NA,NA,NA,25,FALSE,20,60.8550133555,NA,"American English","VSH_Exp2","2016_Mar_03_1307",NA
"Recordings/pupu.wav","no","p","p","u","yes","u","pupu","Training","bilabial","TrainingItems",1,47,147,4,NA,NA,NA,NA,NA,NA,NA,NA,NA,NA,25,FALSE,20,60.8550133555,NA,"American English","VSH_Exp2","2016_Mar_03_1307",NA
"Recordings/zuva.wav","yes","z","v","u","no","a","zuva","Training","alveolar","TrainingItems",1,48,148,7,NA,NA,NA,NA,NA,NA,NA,NA,NA,NA,25,FALSE,20,60.8550133555,NA,"American English","VSH_Exp2","2016_Mar_03_1307",NA
"Recordings/vivi.wav","yes","v","v","i","no","i","vivi","Training","bilabial","TrainingItems",1,49,149,68,NA,NA,NA,NA,NA,NA,NA,NA,NA,NA,25,FALSE,20,60.8550133555,NA,"American English","VSH_Exp2","2016_Mar_03_1307",NA
"Recordings/tuti.wav","no","t","t","u","yes","i","tuti","Training","alveolar","TrainingItems",1,50,150,99,NA,NA,NA,NA,NA,NA,NA,NA,NA,NA,25,FALSE,20,60.8550133555,NA,"American English","VSH_Exp2","2016_Mar_03_1307",NA
"Recordings/zava.wav","yes","z","v","a","no","a","zava","Training","alveolar","TrainingItems",1,51,151,64,NA,NA,NA,NA,NA,NA,NA,NA,NA,NA,25,FALSE,20,60.8550133555,NA,"American English","VSH_Exp2","2016_Mar_03_1307",NA
"Recordings/vavi.wav","yes","v","v","a","no","i","vavi","Training","bilabial","TrainingItems",1,52,152,95,NA,NA,NA,NA,NA,NA,NA,NA,NA,NA,25,FALSE,20,60.8550133555,NA,"American English","VSH_Exp2","2016_Mar_03_1307",NA
"Recordings/sisi.wav","no","s","s","i","no","i","sisi","Training","alveolar","TrainingItems",1,53,153,26,NA,NA,NA,NA,NA,NA,NA,NA,NA,NA,25,FALSE,20,60.8550133555,NA,"American English","VSH_Exp2","2016_Mar_03_1307",NA
"Recordings/budu.wav","yes","b","d","u","yes","u","budu","Training","bilabial","TrainingItems",1,54,154,90,NA,NA,NA,NA,NA,NA,NA,NA,NA,NA,25,FALSE,20,60.8550133555,NA,"American English","VSH_Exp2","2016_Mar_03_1307",NA
"Recordings/zavu.wav","yes","z","v","a","no","u","zavu","Training","alveolar","TrainingItems",1,55,155,46,NA,NA,NA,NA,NA,NA,NA,NA,NA,NA,25,FALSE,20,60.8550133555,NA,"American English","VSH_Exp2","2016_Mar_03_1307",NA
"Recordings/vuzi.wav","yes","v","z","u","no","i","vuzi","Training","bilabial","TrainingItems",1,56,156,14,NA,NA,NA,NA,NA,NA,NA,NA,NA,NA,25,FALSE,20,60.8550133555,NA,"American English","VSH_Exp2","2016_Mar_03_1307",NA
"Recordings/vavu.wav","yes","v","v","a","no","u","vavu","Training","bilabial","TrainingItems",1,57,157,44,NA,NA,NA,NA,NA,NA,NA,NA,NA,NA,25,FALSE,20,60.8550133555,NA,"American English","VSH_Exp2","2016_Mar_03_1307",NA
"Recordings/sufi.wav","no","s","f","u","no","i","sufi","Training","alveolar","TrainingItems",1,58,158,74,NA,NA,NA,NA,NA,NA,NA,NA,NA,NA,25,FALSE,20,60.8550133555,NA,"American English","VSH_Exp2","2016_Mar_03_1307",NA
"Recordings/tutu.wav","no","t","t","u","yes","u","tutu","Training","alveolar","TrainingItems",1,59,159,93,NA,NA,NA,NA,NA,NA,NA,NA,NA,NA,25,FALSE,20,60.8550133555,NA,"American English","VSH_Exp2","2016_Mar_03_1307",NA
"Recordings/papa.wav","no","p","p","a","yes","a","papa","Training","bilabial","TrainingItems",1,60,160,67,NA,NA,NA,NA,NA,NA,NA,NA,NA,NA,25,FALSE,20,60.8550133555,NA,"American English","VSH_Exp2","2016_Mar_03_1307",NA
"Recordings/vazu.wav","yes","v","z","a","no","u","vazu","Training","bilabial","TrainingItems",1,61,161,60,NA,NA,NA,NA,NA,NA,NA,NA,NA,NA,25,FALSE,20,60.8550133555,NA,"American English","VSH_Exp2","2016_Mar_03_1307",NA
"Recordings/zizu.wav","yes","z","z","i","no","u","zizu","Training","alveolar","TrainingItems",1,62,162,49,NA,NA,NA,NA,NA,NA,NA,NA,NA,NA,25,FALSE,20,60.8550133555,NA,"American English","VSH_Exp2","2016_Mar_03_1307",NA
"Recordings/pupa.wav","no","p","p","u","yes","a","pupa","Training","bilabial","TrainingItems",1,63,163,47,NA,NA,NA,NA,NA,NA,NA,NA,NA,NA,25,FALSE,20,60.8550133555,NA,"American English","VSH_Exp2","2016_Mar_03_1307",NA
"Recordings/titi.wav","no","t","t","i","yes","i","titi","Training","alveolar","TrainingItems",1,64,164,41,NA,NA,NA,NA,NA,NA,NA,NA,NA,NA,25,FALSE,20,60.8550133555,NA,"American English","VSH_Exp2","2016_Mar_03_1307",NA
"Recordings/safa.wav","no","s","f","a","no","a","safa","Training","alveolar","TrainingItems",1,65,165,81,NA,NA,NA,NA,NA,NA,NA,NA,NA,NA,25,FALSE,20,60.8550133555,NA,"American English","VSH_Exp2","2016_Mar_03_1307",NA
"Recordings/sasa.wav","no","s","s","a","no","a","sasa","Training","alveolar","TrainingItems",1,66,166,59,NA,NA,NA,NA,NA,NA,NA,NA,NA,NA,25,FALSE,20,60.8550133555,NA,"American English","VSH_Exp2","2016_Mar_03_1307",NA
"Recordings/fufi.wav","no","f","f","u","no","i","fufi","Training","bilabial","TrainingItems",1,67,167,6,NA,NA,NA,NA,NA,NA,NA,NA,NA,NA,25,FALSE,20,60.8550133555,NA,"American English","VSH_Exp2","2016_Mar_03_1307",NA
"Recordings/fasa.wav","no","f","s","a","no","a","fasa","Training","bilabial","TrainingItems",1,68,168,80,NA,NA,NA,NA,NA,NA,NA,NA,NA,NA,25,FALSE,20,60.8550133555,NA,"American English","VSH_Exp2","2016_Mar_03_1307",NA
"Recordings/didu.wav","yes","d","d","i","yes","u","didu","Training","alveolar","TrainingItems",1,69,169,78,NA,NA,NA,NA,NA,NA,NA,NA,NA,NA,25,FALSE,20,60.8550133555,NA,"American English","VSH_Exp2","2016_Mar_03_1307",NA
"Recordings/baba.wav","yes","b","b","a","yes","a","baba","Training","bilabial","TrainingItems",1,70,170,77,NA,NA,NA,NA,NA,NA,NA,NA,NA,NA,25,FALSE,20,60.8550133555,NA,"American English","VSH_Exp2","2016_Mar_03_1307",NA
"Recordings/fusa.wav","no","f","s","u","no","a","fusa","Training","bilabial","TrainingItems",1,71,171,79,NA,NA,NA,NA,NA,NA,NA,NA,NA,NA,25,FALSE,20,60.8550133555,NA,"American English","VSH_Exp2","2016_Mar_03_1307",NA
"Recordings/sisa.wav","no","s","s","i","no","a","sisa","Training","alveolar","TrainingItems",1,72,172,96,NA,NA,NA,NA,NA,NA,NA,NA,NA,NA,25,FALSE,20,60.8550133555,NA,"American English","VSH_Exp2","2016_Mar_03_1307",NA
"Recordings/zavi.wav","yes","z","v","a","no","i","zavi","Training","alveolar","TrainingItems",1,73,173,55,NA,NA,NA,NA,NA,NA,NA,NA,NA,NA,25,FALSE,20,60.8550133555,NA,"American English","VSH_Exp2","2016_Mar_03_1307",NA
"Recordings/zuvu.wav","yes","z","v","u","no","u","zuvu","Training","alveolar","TrainingItems",1,74,174,45,NA,NA,NA,NA,NA,NA,NA,NA,NA,NA,25,FALSE,20,60.8550133555,NA,"American English","VSH_Exp2","2016_Mar_03_1307",NA
"Recordings/bidu.wav","yes","b","d","i","yes","u","bidu","Training","bilabial","TrainingItems",1,75,175,27,NA,NA,NA,NA,NA,NA,NA,NA,NA,NA,25,FALSE,20,60.8550133555,NA,"American English","VSH_Exp2","2016_Mar_03_1307",NA
"Recordings/fufa.wav","no","f","f","u","no","a","fufa","Training","bilabial","TrainingItems",1,76,176,33,NA,NA,NA,NA,NA,NA,NA,NA,NA,NA,25,FALSE,20,60.8550133555,NA,"American English","VSH_Exp2","2016_Mar_03_1307",NA
"Recordings/zaza.wav","yes","z","z","a","no","a","zaza","Training","alveolar","TrainingItems",1,77,177,34,NA,NA,NA,NA,NA,NA,NA,NA,NA,NA,25,FALSE,20,60.8550133555,NA,"American English","VSH_Exp2","2016_Mar_03_1307",NA
"Recordings/tati.wav","no","t","t","a","yes","i","tati","Training","alveolar","TrainingItems",1,78,178,82,NA,NA,NA,NA,NA,NA,NA,NA,NA,NA,25,FALSE,20,60.8550133555,NA,"American English","VSH_Exp2","2016_Mar_03_1307",NA
"Recordings/ziza.wav","yes","z","z","i","no","a","ziza","Training","alveolar","TrainingItems",1,79,179,63,NA,NA,NA,NA,NA,NA,NA,NA,NA,NA,25,FALSE,20,60.8550133555,NA,"American English","VSH_Exp2","2016_Mar_03_1307",NA
"Recordings/sifu.wav","no","s","f","i","no","u","sifu","Training","alveolar","TrainingItems",1,80,180,58,NA,NA,NA,NA,NA,NA,NA,NA,NA,NA,25,FALSE,20,60.8550133555,NA,"American English","VSH_Exp2","2016_Mar_03_1307",NA
"Recordings/vava.wav","yes","v","v","a","no","a","vava","Training","bilabial","TrainingItems",1,81,181,73,NA,NA,NA,NA,NA,NA,NA,NA,NA,NA,25,FALSE,20,60.8550133555,NA,"American English","VSH_Exp2","2016_Mar_03_1307",NA
"Recordings/fisa.wav","no","f","s","i","no","a","fisa","Training","bilabial","TrainingItems",1,82,182,48,NA,NA,NA,NA,NA,NA,NA,NA,NA,NA,25,FALSE,20,60.8550133555,NA,"American English","VSH_Exp2","2016_Mar_03_1307",NA
"Recordings/dudi.wav","yes","d","d","u","yes","i","dudi","Training","alveolar","TrainingItems",1,83,183,98,NA,NA,NA,NA,NA,NA,NA,NA,NA,NA,25,FALSE,20,60.8550133555,NA,"American English","VSH_Exp2","2016_Mar_03_1307",NA
"Recordings/budi.wav","yes","b","d","u","yes","i","budi","Training","bilabial","TrainingItems",1,84,184,43,NA,NA,NA,NA,NA,NA,NA,NA,NA,NA,25,FALSE,20,60.8550133555,NA,"American English","VSH_Exp2","2016_Mar_03_1307",NA
"Recordings/fisu.wav","no","f","s","i","no","u","fisu","Training","bilabial","TrainingItems",1,85,185,56,NA,NA,NA,NA,NA,NA,NA,NA,NA,NA,25,FALSE,20,60.8550133555,NA,"American English","VSH_Exp2","2016_Mar_03_1307",NA
"Recordings/buda.wav","yes","b","d","u","yes","a","buda","Training","bilabial","TrainingItems",1,86,186,1,NA,NA,NA,NA,NA,NA,NA,NA,NA,NA,25,FALSE,20,60.8550133555,NA,"American English","VSH_Exp2","2016_Mar_03_1307",NA
"Recordings/dubi.wav","yes","d","b","u","yes","i","dubi","Training","alveolar","TrainingItems",1,87,187,83,NA,NA,NA,NA,NA,NA,NA,NA,NA,NA,25,FALSE,20,60.8550133555,NA,"American English","VSH_Exp2","2016_Mar_03_1307",NA
"Recordings/sisu.wav","no","s","s","i","no","u","sisu","Training","alveolar","TrainingItems",1,88,188,91,NA,NA,NA,NA,NA,NA,NA,NA,NA,NA,25,FALSE,20,60.8550133555,NA,"American English","VSH_Exp2","2016_Mar_03_1307",NA
"Recordings/vivu.wav","yes","v","v","i","no","u","vivu","Training","bilabial","TrainingItems",1,89,189,36,NA,NA,NA,NA,NA,NA,NA,NA,NA,NA,25,FALSE,20,60.8550133555,NA,"American English","VSH_Exp2","2016_Mar_03_1307",NA
"Recordings/babi.wav","yes","b","b","a","yes","i","babi","Training","bilabial","TrainingItems",1,90,190,69,NA,NA,NA,NA,NA,NA,NA,NA,NA,NA,25,FALSE,20,60.8550133555,NA,"American English","VSH_Exp2","2016_Mar_03_1307",NA
"Recordings/duda.wav","yes","d","d","u","yes","a","duda","Training","alveolar","TrainingItems",1,91,191,84,NA,NA,NA,NA,NA,NA,NA,NA,NA,NA,25,FALSE,20,60.8550133555,NA,"American English","VSH_Exp2","2016_Mar_03_1307",NA
"Recordings/zuzu.wav","yes","z","z","u","no","u","zuzu","Training","alveolar","TrainingItems",1,92,192,53,NA,NA,NA,NA,NA,NA,NA,NA,NA,NA,25,FALSE,20,60.8550133555,NA,"American English","VSH_Exp2","2016_Mar_03_1307",NA
"Recordings/safi.wav","no","s","f","a","no","i","safi","Training","alveolar","TrainingItems",1,93,193,5,NA,NA,NA,NA,NA,NA,NA,NA,NA,NA,25,FALSE,20,60.8550133555,NA,"American English","VSH_Exp2","2016_Mar_03_1307",NA
"Recordings/fafa.wav","no","f","f","a","no","a","fafa","Training","bilabial","TrainingItems",1,94,194,20,NA,NA,NA,NA,NA,NA,NA,NA,NA,NA,25,FALSE,20,60.8550133555,NA,"American English","VSH_Exp2","2016_Mar_03_1307",NA
"Recordings/zazi.wav","yes","z","z","a","no","i","zazi","Training","alveolar","TrainingItems",1,95,195,16,NA,NA,NA,NA,NA,NA,NA,NA,NA,NA,25,FALSE,20,60.8550133555,NA,"American English","VSH_Exp2","2016_Mar_03_1307",NA
"Recordings/sasu.wav","no","s","s","a","no","u","sasu","Training","alveolar","TrainingItems",1,96,196,38,NA,NA,NA,NA,NA,NA,NA,NA,NA,NA,25,FALSE,20,60.8550133555,NA,"American English","VSH_Exp2","2016_Mar_03_1307",NA
"Recordings/vizu.wav","yes","v","z","i","no","u","vizu","Training","bilabial","TrainingItems",1,97,197,54,NA,NA,NA,NA,NA,NA,NA,NA,NA,NA,25,FALSE,20,60.8550133555,NA,"American English","VSH_Exp2","2016_Mar_03_1307",NA
"Recordings/fifu.wav","no","f","f","i","no","u","fifu","Training","bilabial","TrainingItems",1,98,198,66,NA,NA,NA,NA,NA,NA,NA,NA,NA,NA,25,FALSE,20,60.8550133555,NA,"American English","VSH_Exp2","2016_Mar_03_1307",NA
"Recordings/zuza.wav","yes","z","z","u","no","a","zuza","Training","alveolar","TrainingItems",1,99,199,92,NA,NA,NA,NA,NA,NA,NA,NA,NA,NA,25,FALSE,20,60.8550133555,NA,"American English","VSH_Exp2","2016_Mar_03_1307",NA
NA,NA,NA,NA,NA,NA,NA,NA,NA,NA,NA,NA,NA,NA,NA,NA,NA,NA,NA,NA,NA,"space",7.39220190048,NA,NA,25,FALSE,20,60.8550133555,NA,"American English","VSH_Exp2","2016_Mar_03_1307",NA
"Recordings/zuba.wav","yes","z","b","u","no","a","zuba","Controls","alveolar","VoicingControls",NA,NA,NA,NA,0,0,0,47,NA,NA,NA,NA,"Yes",4.074,25,FALSE,20,60.8550133555,NA,"American English","VSH_Exp2","2016_Mar_03_1307",NA
"Recordings/bifa.wav","yes","b","f","i","yes","a","bifa","Controls","bilabial","NoPatternControls",NA,NA,NA,NA,0,1,1,58,NA,NA,NA,NA,"Yes",11.466,25,FALSE,20,60.8550133555,NA,"American English","VSH_Exp2","2016_Mar_03_1307",NA
"Recordings/suva.wav","no","s","v","u","no","a","suva","Controls","alveolar","StopControls",NA,NA,NA,NA,0,2,2,34,NA,NA,NA,NA,"Yes",1.653,25,FALSE,20,60.8550133555,NA,"American English","VSH_Exp2","2016_Mar_03_1307",NA
"Recordings/tupi.wav","no","t","p","u","yes","i","tupi","Test","alveolar","NewConsTestStimuli",NA,NA,NA,NA,0,3,3,12,NA,NA,NA,NA,"No",3.539,25,FALSE,20,60.8550133555,NA,"American English","VSH_Exp2","2016_Mar_03_1307",NA
"Recordings/fifi.wav","no","f","f","i","no","i","fifi","Test","bilabial","OldTestStimuli",NA,NA,NA,NA,0,4,4,3,NA,NA,NA,NA,"Yes",1.486,25,FALSE,20,60.8550133555,NA,"American English","VSH_Exp2","2016_Mar_03_1307",NA
"Recordings/sufu.wav","no","s","f","u","no","u","sufu","Test","alveolar","NewWordTestStimuli",NA,NA,NA,NA,0,5,5,29,NA,NA,NA,NA,"Yes",4.608,25,FALSE,20,60.8550133555,NA,"American English","VSH_Exp2","2016_Mar_03_1307",NA
"Recordings/fiba.wav","no","f","b","i","no","a","fiba","Controls","bilabial","NoPatternControls",NA,NA,NA,NA,0,6,6,53,NA,NA,NA,NA,"No",3.239,25,FALSE,20,60.8550133555,NA,"American English","VSH_Exp2","2016_Mar_03_1307",NA
"Recordings/vifi.wav","yes","v","f","i","no","i","vifi","Controls","bilabial","StopControls",NA,NA,NA,NA,0,7,7,39,NA,NA,NA,NA,"No",7.46,25,FALSE,20,60.8550133555,NA,"American English","VSH_Exp2","2016_Mar_03_1307",NA
"Recordings/zizi.wav","yes","z","z","i","no","i","zizi","Test","alveolar","NewWordTestStimuli",NA,NA,NA,NA,0,8,8,23,NA,NA,NA,NA,"Yes",1.17,25,FALSE,20,60.8550133555,NA,"American English","VSH_Exp2","2016_Mar_03_1307",NA
"Recordings/vizu.wav","yes","v","z","i","no","u","vizu","Test","bilabial","OldTestStimuli",NA,NA,NA,NA,0,9,9,5,NA,NA,NA,NA,"Yes",0.936,25,FALSE,20,60.8550133555,NA,"American English","VSH_Exp2","2016_Mar_03_1307",NA
"Recordings/fabu.wav","no","f","b","a","no","u","fabu","Controls","bilabial","NoPatternControls",NA,NA,NA,NA,0,10,10,56,NA,NA,NA,NA,"Yes",1.07,25,FALSE,20,60.8550133555,NA,"American English","VSH_Exp2","2016_Mar_03_1307",NA
"Recordings/tipa.wav","no","t","p","i","yes","a","tipa","Test","alveolar","NewConsTestStimuli",NA,NA,NA,NA,0,11,11,13,NA,NA,NA,NA,"Yes",1.235,25,FALSE,20,60.8550133555,NA,"American English","VSH_Exp2","2016_Mar_03_1307",NA
"Recordings/puti.wav","no","p","t","u","yes","i","puti","Test","bilabial","NewConsTestStimuli",NA,NA,NA,NA,0,12,12,17,NA,NA,NA,NA,"No",2.471,25,FALSE,20,60.8550133555,NA,"American English","VSH_Exp2","2016_Mar_03_1307",NA
"Recordings/vupi.wav","yes","v","p","u","no","i","vupi","Controls","bilabial","NoPatternControls",NA,NA,NA,NA,0,13,13,59,NA,NA,NA,NA,"No",1.654,25,FALSE,20,60.8550133555,NA,"American English","VSH_Exp2","2016_Mar_03_1307",NA
"Recordings/fati.wav","no","f","t","a","no","i","fati","Controls","bilabial","VoicingControls",NA,NA,NA,NA,0,14,14,43,NA,NA,NA,NA,"No",6.209,25,FALSE,20,60.8550133555,NA,"American English","VSH_Exp2","2016_Mar_03_1307",NA
"Recordings/pipi.wav","no","p","p","i","yes","i","pipi","Test","bilabial","NewWordTestStimuli",NA,NA,NA,NA,0,15,15,24,NA,NA,NA,NA,"Yes",1.287,25,FALSE,20,60.8550133555,NA,"American English","VSH_Exp2","2016_Mar_03_1307",NA
"Recordings/pipa.wav","no","p","p","i","yes","a","pipa","Test","bilabial","NewWordTestStimuli",NA,NA,NA,NA,0,16,16,27,NA,NA,NA,NA,"Yes",0.653,25,FALSE,20,60.8550133555,NA,"American English","VSH_Exp2","2016_Mar_03_1307",NA
"Recordings/buvi.wav","yes","b","v","u","yes","i","buvi","Controls","bilabial","VoicingControls",NA,NA,NA,NA,0,17,17,48,NA,NA,NA,NA,"Yes",1.303,25,FALSE,20,60.8550133555,NA,"American English","VSH_Exp2","2016_Mar_03_1307",NA
"Recordings/futa.wav","no","f","t","u","no","a","futa","Controls","bilabial","VoicingControls",NA,NA,NA,NA,0,18,18,40,NA,NA,NA,NA,"Yes",0.954,25,FALSE,20,60.8550133555,NA,"American English","VSH_Exp2","2016_Mar_03_1307",NA
"Recordings/fupu.wav","no","f","p","u","no","u","fupu","Controls","bilabial","VoicingControls",NA,NA,NA,NA,0,19,19,46,NA,NA,NA,NA,"No",2.021,25,FALSE,20,60.8550133555,NA,"American English","VSH_Exp2","2016_Mar_03_1307",NA
"Recordings/tisi.wav","no","t","s","i","yes","i","tisi","Controls","alveolar","VoicingControls",NA,NA,NA,NA,0,20,20,42,NA,NA,NA,NA,"No",1.421,25,FALSE,20,60.8550133555,NA,"American English","VSH_Exp2","2016_Mar_03_1307",NA
"Recordings/dada.wav","yes","d","d","a","yes","a","dada","Test","alveolar","OldTestStimuli",NA,NA,NA,NA,0,21,21,0,NA,NA,NA,NA,"Yes",1.037,25,FALSE,20,60.8550133555,NA,"American English","VSH_Exp2","2016_Mar_03_1307",NA
"Recordings/tapa.wav","no","t","p","a","yes","a","tapa","Test","alveolar","NewConsTestStimuli",NA,NA,NA,NA,0,22,22,19,NA,NA,NA,NA,"Yes",1.171,25,FALSE,20,60.8550133555,NA,"American English","VSH_Exp2","2016_Mar_03_1307",NA
"Recordings/vava.wav","yes","v","v","a","no","a","vava","Test","bilabial","OldTestStimuli",NA,NA,NA,NA,0,23,23,9,NA,NA,NA,NA,"Yes",0.804,25,FALSE,20,60.8550133555,NA,"American English","VSH_Exp2","2016_Mar_03_1307",NA
"Recordings/fuva.wav","no","f","v","u","no","a","fuva","Controls","bilabial","StopControls",NA,NA,NA,NA,0,24,24,36,NA,NA,NA,NA,"Yes",0.936,25,FALSE,20,60.8550133555,NA,"American English","VSH_Exp2","2016_Mar_03_1307",NA
"Recordings/dudu.wav","yes","d","d","u","yes","u","dudu","Test","alveolar","OldTestStimuli",NA,NA,NA,NA,0,25,25,6,NA,NA,NA,NA,"No",2.105,25,FALSE,20,60.8550133555,NA,"American English","VSH_Exp2","2016_Mar_03_1307",NA
"Recordings/fadi.wav","no","f","d","a","no","i","fadi","Controls","bilabial","NoPatternControls",NA,NA,NA,NA,0,26,26,50,NA,NA,NA,NA,"No",1.77,25,FALSE,20,60.8550133555,NA,"American English","VSH_Exp2","2016_Mar_03_1307",NA
"Recordings/vibi.wav","yes","v","b","i","no","i","vibi","Controls","bilabial","VoicingControls",NA,NA,NA,NA,0,27,27,49,NA,NA,NA,NA,"No",1.621,25,FALSE,20,60.8550133555,NA,"American English","VSH_Exp2","2016_Mar_03_1307",NA
"Recordings/dipa.wav","yes","d","p","i","yes","a","dipa","Controls","alveolar","StopControls",NA,NA,NA,NA,0,28,28,31,NA,NA,NA,NA,"Yes",2.673,25,FALSE,20,60.8550133555,NA,"American English","VSH_Exp2","2016_Mar_03_1307",NA
"Recordings/zutu.wav","yes","z","t","u","no","u","zutu","Controls","alveolar","NoPatternControls",NA,NA,NA,NA,0,29,29,57,NA,NA,NA,NA,"Yes",0.821,25,FALSE,20,60.8550133555,NA,"American English","VSH_Exp2","2016_Mar_03_1307",NA
"Recordings/fafu.wav","no","f","f","a","no","u","fafu","Test","bilabial","NewWordTestStimuli",NA,NA,NA,NA,0,30,30,26,NA,NA,NA,NA,"Yes",1.137,25,FALSE,20,60.8550133555,NA,"American English","VSH_Exp2","2016_Mar_03_1307",NA
"Recordings/bupi.wav","yes","b","p","u","yes","i","bupi","Controls","bilabial","StopControls",NA,NA,NA,NA,0,31,31,38,NA,NA,NA,NA,"No",1.536,25,FALSE,20,60.8550133555,NA,"American English","VSH_Exp2","2016_Mar_03_1307",NA
"Recordings/disu.wav","yes","d","s","i","yes","u","disu","Controls","alveolar","NoPatternControls",NA,NA,NA,NA,0,32,32,51,NA,NA,NA,NA,"No",1.889,25,FALSE,20,60.8550133555,NA,"American English","VSH_Exp2","2016_Mar_03_1307",NA
"Recordings/zuzu.wav","yes","z","z","u","no","u","zuzu","Test","alveolar","OldTestStimuli",NA,NA,NA,NA,0,33,33,7,NA,NA,NA,NA,"Yes",1.137,25,FALSE,20,60.8550133555,NA,"American English","VSH_Exp2","2016_Mar_03_1307",NA
"Recordings/sidi.wav","no","s","d","i","no","i","sidi","Controls","alveolar","NoPatternControls",NA,NA,NA,NA,0,34,34,55,NA,NA,NA,NA,"Yes",1.822,25,FALSE,20,60.8550133555,NA,"American English","VSH_Exp2","2016_Mar_03_1307",NA
"Recordings/sudi.wav","no","s","d","u","no","i","sudi","Controls","alveolar","NoPatternControls",NA,NA,NA,NA,0,35,35,54,NA,NA,NA,NA,"Yes",4.042,25,FALSE,20,60.8550133555,NA,"American English","VSH_Exp2","2016_Mar_03_1307",NA
"Recordings/zizu.wav","yes","z","z","i","no","u","zizu","Test","alveolar","OldTestStimuli",NA,NA,NA,NA,0,36,36,4,NA,NA,NA,NA,"Yes",1.17,25,FALSE,20,60.8550133555,NA,"American English","VSH_Exp2","2016_Mar_03_1307",NA
"Recordings/vaza.wav","yes","v","z","a","no","a","vaza","Test","bilabial","OldTestStimuli",NA,NA,NA,NA,0,37,37,8,NA,NA,NA,NA,"Yes",1.069,25,FALSE,20,60.8550133555,NA,"American English","VSH_Exp2","2016_Mar_03_1307",NA
"Recordings/viza.wav","yes","v","z","i","no","a","viza","Test","bilabial","NewWordTestStimuli",NA,NA,NA,NA,0,38,38,25,NA,NA,NA,NA,"No",2.054,25,FALSE,20,60.8550133555,NA,"American English","VSH_Exp2","2016_Mar_03_1307",NA
"Recordings/savi.wav","no","s","v","a","no","i","savi","Controls","alveolar","StopControls",NA,NA,NA,NA,0,39,39,35,NA,NA,NA,NA,"Yes",1.705,25,FALSE,20,60.8550133555,NA,"American English","VSH_Exp2","2016_Mar_03_1307",NA
"Recordings/tizu.wav","no","t","z","i","yes","u","tizu","Controls","alveolar","NoPatternControls",NA,NA,NA,NA,0,40,40,52,NA,NA,NA,NA,"No",2.74,25,FALSE,20,60.8550133555,NA,"American English","VSH_Exp2","2016_Mar_03_1307",NA
"Recordings/diva.wav","yes","d","v","i","yes","a","diva","Controls","alveolar","VoicingControls",NA,NA,NA,NA,0,41,41,41,NA,NA,NA,NA,"No",2.156,25,FALSE,20,60.8550133555,NA,"American English","VSH_Exp2","2016_Mar_03_1307",NA
"Recordings/sapu.wav","no","s","p","a","no","u","sapu","Controls","alveolar","VoicingControls",NA,NA,NA,NA,0,42,42,45,NA,NA,NA,NA,"No",1.12,25,FALSE,20,60.8550133555,NA,"American English","VSH_Exp2","2016_Mar_03_1307",NA
"Recordings/zufa.wav","yes","z","f","u","no","a","zufa","Controls","alveolar","StopControls",NA,NA,NA,NA,0,43,43,37,NA,NA,NA,NA,"Yes",2.957,25,FALSE,20,60.8550133555,NA,"American English","VSH_Exp2","2016_Mar_03_1307",NA
"Recordings/sufa.wav","no","s","f","u","no","a","sufa","Test","alveolar","NewWordTestStimuli",NA,NA,NA,NA,0,44,44,22,NA,NA,NA,NA,"No",3.355,25,FALSE,20,60.8550133555,NA,"American English","VSH_Exp2","2016_Mar_03_1307",NA
"Recordings/badi.wav","yes","b","d","a","yes","i","badi","Test","bilabial","NewWordTestStimuli",NA,NA,NA,NA,0,45,45,28,NA,NA,NA,NA,"Yes",1.638,25,FALSE,20,60.8550133555,NA,"American English","VSH_Exp2","2016_Mar_03_1307",NA
"Recordings/favu.wav","no","f","v","a","no","u","favu","Controls","bilabial","StopControls",NA,NA,NA,NA,0,46,46,33,NA,NA,NA,NA,"Yes",3.422,25,FALSE,20,60.8550133555,NA,"American English","VSH_Exp2","2016_Mar_03_1307",NA
"Recordings/puta.wav","no","p","t","u","yes","a","puta","Test","bilabial","NewConsTestStimuli",NA,NA,NA,NA,0,47,47,14,NA,NA,NA,NA,"Yes",1.72,25,FALSE,20,60.8550133555,NA,"American English","VSH_Exp2","2016_Mar_03_1307",NA
"Recordings/pati.wav","no","p","t","a","yes","i","pati","Test","bilabial","NewConsTestStimuli",NA,NA,NA,NA,0,48,48,18,NA,NA,NA,NA,"No",1.403,25,FALSE,20,60.8550133555,NA,"American English","VSH_Exp2","2016_Mar_03_1307",NA
"Recordings/supi.wav","no","s","p","u","no","i","supi","Controls","alveolar","VoicingControls",NA,NA,NA,NA,0,49,49,44,NA,NA,NA,NA,"No",1.787,25,FALSE,20,60.8550133555,NA,"American English","VSH_Exp2","2016_Mar_03_1307",NA
"Recordings/piti.wav","no","p","t","i","yes","i","piti","Test","bilabial","NewConsTestStimuli",NA,NA,NA,NA,0,50,50,10,NA,NA,NA,NA,"No",1.721,25,FALSE,20,60.8550133555,NA,"American English","VSH_Exp2","2016_Mar_03_1307",NA
"Recordings/tapi.wav","no","t","p","a","yes","i","tapi","Test","alveolar","NewConsTestStimuli",NA,NA,NA,NA,0,51,51,15,NA,NA,NA,NA,"No",1.187,25,FALSE,20,60.8550133555,NA,"American English","VSH_Exp2","2016_Mar_03_1307",NA
"Recordings/vuvi.wav","yes","v","v","u","no","i","vuvi","Test","bilabial","OldTestStimuli",NA,NA,NA,NA,0,52,52,2,NA,NA,NA,NA,"No",1.455,25,FALSE,20,60.8550133555,NA,"American English","VSH_Exp2","2016_Mar_03_1307",NA
"Recordings/patu.wav","no","p","t","a","yes","u","patu","Test","bilabial","NewConsTestStimuli",NA,NA,NA,NA,0,53,53,11,NA,NA,NA,NA,"Yes",1.972,25,FALSE,20,60.8550133555,NA,"American English","VSH_Exp2","2016_Mar_03_1307",NA
"Recordings/dibu.wav","yes","d","b","i","yes","u","dibu","Test","alveolar","NewWordTestStimuli",NA,NA,NA,NA,0,54,54,20,NA,NA,NA,NA,"No",1.337,25,FALSE,20,60.8550133555,NA,"American English","VSH_Exp2","2016_Mar_03_1307",NA
"Recordings/tipu.wav","no","t","p","i","yes","u","tipu","Test","alveolar","NewConsTestStimuli",NA,NA,NA,NA,0,55,55,16,NA,NA,NA,NA,"No",1.054,25,FALSE,20,60.8550133555,NA,"American English","VSH_Exp2","2016_Mar_03_1307",NA
"Recordings/bida.wav","yes","b","d","i","yes","a","bida","Test","bilabial","OldTestStimuli",NA,NA,NA,NA,0,56,56,1,NA,NA,NA,NA,"Yes",1.369,25,FALSE,20,60.8550133555,NA,"American English","VSH_Exp2","2016_Mar_03_1307",NA
"Recordings/tubi.wav","no","t","b","u","yes","i","tubi","Controls","alveolar","StopControls",NA,NA,NA,NA,0,57,57,32,NA,NA,NA,NA,"No",1.537,25,FALSE,20,60.8550133555,NA,"American English","VSH_Exp2","2016_Mar_03_1307",NA
"Recordings/fuvu.wav","no","f","v","u","no","u","fuvu","Controls","bilabial","StopControls",NA,NA,NA,NA,0,58,58,30,NA,NA,NA,NA,"No",1.52,25,FALSE,20,60.8550133555,NA,"American English","VSH_Exp2","2016_Mar_03_1307",NA
"Recordings/daba.wav","yes","d","b","a","yes","a","daba","Test","alveolar","NewWordTestStimuli",NA,NA,NA,NA,0,59,59,21,NA,NA,NA,NA,"No",1.153,25,FALSE,20,60.8550133555,NA,"American English","VSH_Exp2","2016_Mar_03_1307",NA
