"SOUND","VOICING","SEGMENT","SEGMENT3","SEGMENT2","STOP","SEGMENT4","STIMULUS","GENERAL_TYPE","PLACE","TYPE","trials.thisRepN","trials.thisTrialN","trials.thisN","trials.thisIndex","trials_2.thisRepN","trials_2.thisTrialN","trials_2.thisN","trials_2.thisIndex","SpaceBar.keys","SpaceBar.rt","key_resp_2.keys","key_resp_2.rt","rating.response","rating.rt","participant","Gender","Age","frameRate","OtherLanguages","NativeLanguage","expName","date","X34"
NA,NA,NA,NA,NA,NA,NA,NA,NA,NA,NA,NA,NA,NA,NA,NA,NA,NA,NA,"space",9.53044605255,NA,NA,NA,NA,28,FALSE,21,61.1661560134,0,"American English","VSH_Exp2","2016_Mar_22_1751",NA
"Recordings/zaza.wav","yes","z","z","a","no","a","zaza","Training","alveolar","TrainingItems",0,0,0,98,NA,NA,NA,NA,NA,NA,NA,NA,NA,NA,28,FALSE,21,61.1661560134,0,"American English","VSH_Exp2","2016_Mar_22_1751",NA
"Recordings/badu.wav","yes","b","d","a","yes","u","badu","Training","bilabial","TrainingItems",0,1,1,87,NA,NA,NA,NA,NA,NA,NA,NA,NA,NA,28,FALSE,21,61.1661560134,0,"American English","VSH_Exp2","2016_Mar_22_1751",NA
"Recordings/vava.wav","yes","v","v","a","no","a","vava","Training","bilabial","TrainingItems",0,2,2,32,NA,NA,NA,NA,NA,NA,NA,NA,NA,NA,28,FALSE,21,61.1661560134,0,"American English","VSH_Exp2","2016_Mar_22_1751",NA
"Recordings/dida.wav","yes","d","d","i","yes","a","dida","Training","alveolar","TrainingItems",0,3,3,19,NA,NA,NA,NA,NA,NA,NA,NA,NA,NA,28,FALSE,21,61.1661560134,0,"American English","VSH_Exp2","2016_Mar_22_1751",NA
"Recordings/babi.wav","yes","b","b","a","yes","i","babi","Training","bilabial","TrainingItems",0,4,4,81,NA,NA,NA,NA,NA,NA,NA,NA,NA,NA,28,FALSE,21,61.1661560134,0,"American English","VSH_Exp2","2016_Mar_22_1751",NA
"Recordings/putu.wav","no","p","t","u","yes","u","putu","Training","bilabial","TrainingItems",0,5,5,38,NA,NA,NA,NA,NA,NA,NA,NA,NA,NA,28,FALSE,21,61.1661560134,0,"American English","VSH_Exp2","2016_Mar_22_1751",NA
"Recordings/babu.wav","yes","b","b","a","yes","u","babu","Training","bilabial","TrainingItems",0,6,6,6,NA,NA,NA,NA,NA,NA,NA,NA,NA,NA,28,FALSE,21,61.1661560134,0,"American English","VSH_Exp2","2016_Mar_22_1751",NA
"Recordings/fufa.wav","no","f","f","u","no","a","fufa","Training","bilabial","TrainingItems",0,7,7,54,NA,NA,NA,NA,NA,NA,NA,NA,NA,NA,28,FALSE,21,61.1661560134,0,"American English","VSH_Exp2","2016_Mar_22_1751",NA
"Recordings/pipa.wav","no","p","p","i","yes","a","pipa","Training","bilabial","TrainingItems",0,8,8,26,NA,NA,NA,NA,NA,NA,NA,NA,NA,NA,28,FALSE,21,61.1661560134,0,"American English","VSH_Exp2","2016_Mar_22_1751",NA
"Recordings/tupa.wav","no","t","p","u","yes","a","tupa","Training","alveolar","TrainingItems",0,9,9,61,NA,NA,NA,NA,NA,NA,NA,NA,NA,NA,28,FALSE,21,61.1661560134,0,"American English","VSH_Exp2","2016_Mar_22_1751",NA
"Recordings/zuva.wav","yes","z","v","u","no","a","zuva","Training","alveolar","TrainingItems",0,10,10,43,NA,NA,NA,NA,NA,NA,NA,NA,NA,NA,28,FALSE,21,61.1661560134,0,"American English","VSH_Exp2","2016_Mar_22_1751",NA
"Recordings/zuza.wav","yes","z","z","u","no","a","zuza","Training","alveolar","TrainingItems",0,11,11,59,NA,NA,NA,NA,NA,NA,NA,NA,NA,NA,28,FALSE,21,61.1661560134,0,"American English","VSH_Exp2","2016_Mar_22_1751",NA
"Recordings/pupi.wav","no","p","p","u","yes","i","pupi","Training","bilabial","TrainingItems",0,12,12,96,NA,NA,NA,NA,NA,NA,NA,NA,NA,NA,28,FALSE,21,61.1661560134,0,"American English","VSH_Exp2","2016_Mar_22_1751",NA
"Recordings/puti.wav","no","p","t","u","yes","i","puti","Training","bilabial","TrainingItems",0,13,13,37,NA,NA,NA,NA,NA,NA,NA,NA,NA,NA,28,FALSE,21,61.1661560134,0,"American English","VSH_Exp2","2016_Mar_22_1751",NA
"Recordings/tuta.wav","no","t","t","u","yes","a","tuta","Training","alveolar","TrainingItems",0,14,14,20,NA,NA,NA,NA,NA,NA,NA,NA,NA,NA,28,FALSE,21,61.1661560134,0,"American English","VSH_Exp2","2016_Mar_22_1751",NA
"Recordings/piti.wav","no","p","t","i","yes","i","piti","Training","bilabial","TrainingItems",0,15,15,56,NA,NA,NA,NA,NA,NA,NA,NA,NA,NA,28,FALSE,21,61.1661560134,0,"American English","VSH_Exp2","2016_Mar_22_1751",NA
"Recordings/pati.wav","no","p","t","a","yes","i","pati","Training","bilabial","TrainingItems",0,16,16,58,NA,NA,NA,NA,NA,NA,NA,NA,NA,NA,28,FALSE,21,61.1661560134,0,"American English","VSH_Exp2","2016_Mar_22_1751",NA
"Recordings/dibu.wav","yes","d","b","i","yes","u","dibu","Training","alveolar","TrainingItems",0,17,17,23,NA,NA,NA,NA,NA,NA,NA,NA,NA,NA,28,FALSE,21,61.1661560134,0,"American English","VSH_Exp2","2016_Mar_22_1751",NA
"Recordings/zizi.wav","yes","z","z","i","no","i","zizi","Training","alveolar","TrainingItems",0,18,18,76,NA,NA,NA,NA,NA,NA,NA,NA,NA,NA,28,FALSE,21,61.1661560134,0,"American English","VSH_Exp2","2016_Mar_22_1751",NA
"Recordings/bidu.wav","yes","b","d","i","yes","u","bidu","Training","bilabial","TrainingItems",0,19,19,92,NA,NA,NA,NA,NA,NA,NA,NA,NA,NA,28,FALSE,21,61.1661560134,0,"American English","VSH_Exp2","2016_Mar_22_1751",NA
"Recordings/pipu.wav","no","p","p","i","yes","u","pipu","Training","bilabial","TrainingItems",0,20,20,63,NA,NA,NA,NA,NA,NA,NA,NA,NA,NA,28,FALSE,21,61.1661560134,0,"American English","VSH_Exp2","2016_Mar_22_1751",NA
"Recordings/papa.wav","no","p","p","a","yes","a","papa","Training","bilabial","TrainingItems",0,21,21,22,NA,NA,NA,NA,NA,NA,NA,NA,NA,NA,28,FALSE,21,61.1661560134,0,"American English","VSH_Exp2","2016_Mar_22_1751",NA
"Recordings/duda.wav","yes","d","d","u","yes","a","duda","Training","alveolar","TrainingItems",0,22,22,11,NA,NA,NA,NA,NA,NA,NA,NA,NA,NA,28,FALSE,21,61.1661560134,0,"American English","VSH_Exp2","2016_Mar_22_1751",NA
"Recordings/pitu.wav","no","p","t","i","yes","u","pitu","Training","bilabial","TrainingItems",0,23,23,42,NA,NA,NA,NA,NA,NA,NA,NA,NA,NA,28,FALSE,21,61.1661560134,0,"American English","VSH_Exp2","2016_Mar_22_1751",NA
"Recordings/vuzi.wav","yes","v","z","u","no","i","vuzi","Training","bilabial","TrainingItems",0,24,24,72,NA,NA,NA,NA,NA,NA,NA,NA,NA,NA,28,FALSE,21,61.1661560134,0,"American English","VSH_Exp2","2016_Mar_22_1751",NA
"Recordings/sisa.wav","no","s","s","i","no","a","sisa","Training","alveolar","TrainingItems",0,25,25,60,NA,NA,NA,NA,NA,NA,NA,NA,NA,NA,28,FALSE,21,61.1661560134,0,"American English","VSH_Exp2","2016_Mar_22_1751",NA
"Recordings/dadi.wav","yes","d","d","a","yes","i","dadi","Training","alveolar","TrainingItems",0,26,26,68,NA,NA,NA,NA,NA,NA,NA,NA,NA,NA,28,FALSE,21,61.1661560134,0,"American English","VSH_Exp2","2016_Mar_22_1751",NA
"Recordings/didi.wav","yes","d","d","i","yes","i","didi","Training","alveolar","TrainingItems",0,27,27,53,NA,NA,NA,NA,NA,NA,NA,NA,NA,NA,28,FALSE,21,61.1661560134,0,"American English","VSH_Exp2","2016_Mar_22_1751",NA
"Recordings/zuvi.wav","yes","z","v","u","no","i","zuvi","Training","alveolar","TrainingItems",0,28,28,40,NA,NA,NA,NA,NA,NA,NA,NA,NA,NA,28,FALSE,21,61.1661560134,0,"American English","VSH_Exp2","2016_Mar_22_1751",NA
"Recordings/dadu.wav","yes","d","d","a","yes","u","dadu","Training","alveolar","TrainingItems",0,29,29,12,NA,NA,NA,NA,NA,NA,NA,NA,NA,NA,28,FALSE,21,61.1661560134,0,"American English","VSH_Exp2","2016_Mar_22_1751",NA
"Recordings/susi.wav","no","s","s","u","no","i","susi","Training","alveolar","TrainingItems",0,30,30,74,NA,NA,NA,NA,NA,NA,NA,NA,NA,NA,28,FALSE,21,61.1661560134,0,"American English","VSH_Exp2","2016_Mar_22_1751",NA
"Recordings/sasi.wav","no","s","s","a","no","i","sasi","Training","alveolar","TrainingItems",0,31,31,75,NA,NA,NA,NA,NA,NA,NA,NA,NA,NA,28,FALSE,21,61.1661560134,0,"American English","VSH_Exp2","2016_Mar_22_1751",NA
"Recordings/titu.wav","no","t","t","i","yes","u","titu","Training","alveolar","TrainingItems",0,32,32,33,NA,NA,NA,NA,NA,NA,NA,NA,NA,NA,28,FALSE,21,61.1661560134,0,"American English","VSH_Exp2","2016_Mar_22_1751",NA
"Recordings/papu.wav","no","p","p","a","yes","u","papu","Training","bilabial","TrainingItems",0,33,33,51,NA,NA,NA,NA,NA,NA,NA,NA,NA,NA,28,FALSE,21,61.1661560134,0,"American English","VSH_Exp2","2016_Mar_22_1751",NA
"Recordings/vuza.wav","yes","v","z","u","no","a","vuza","Training","bilabial","TrainingItems",0,34,34,70,NA,NA,NA,NA,NA,NA,NA,NA,NA,NA,28,FALSE,21,61.1661560134,0,"American English","VSH_Exp2","2016_Mar_22_1751",NA
"Recordings/pupa.wav","no","p","p","u","yes","a","pupa","Training","bilabial","TrainingItems",0,35,35,84,NA,NA,NA,NA,NA,NA,NA,NA,NA,NA,28,FALSE,21,61.1661560134,0,"American English","VSH_Exp2","2016_Mar_22_1751",NA
"Recordings/tipa.wav","no","t","p","i","yes","a","tipa","Training","alveolar","TrainingItems",0,36,36,2,NA,NA,NA,NA,NA,NA,NA,NA,NA,NA,28,FALSE,21,61.1661560134,0,"American English","VSH_Exp2","2016_Mar_22_1751",NA
"Recordings/pupu.wav","no","p","p","u","yes","u","pupu","Training","bilabial","TrainingItems",0,37,37,27,NA,NA,NA,NA,NA,NA,NA,NA,NA,NA,28,FALSE,21,61.1661560134,0,"American English","VSH_Exp2","2016_Mar_22_1751",NA
"Recordings/zavi.wav","yes","z","v","a","no","i","zavi","Training","alveolar","TrainingItems",0,38,38,82,NA,NA,NA,NA,NA,NA,NA,NA,NA,NA,28,FALSE,21,61.1661560134,0,"American English","VSH_Exp2","2016_Mar_22_1751",NA
"Recordings/fafa.wav","no","f","f","a","no","a","fafa","Training","bilabial","TrainingItems",0,39,39,91,NA,NA,NA,NA,NA,NA,NA,NA,NA,NA,28,FALSE,21,61.1661560134,0,"American English","VSH_Exp2","2016_Mar_22_1751",NA
"Recordings/zavu.wav","yes","z","v","a","no","u","zavu","Training","alveolar","TrainingItems",0,40,40,44,NA,NA,NA,NA,NA,NA,NA,NA,NA,NA,28,FALSE,21,61.1661560134,0,"American English","VSH_Exp2","2016_Mar_22_1751",NA
"Recordings/vuvi.wav","yes","v","v","u","no","i","vuvi","Training","bilabial","TrainingItems",0,41,41,9,NA,NA,NA,NA,NA,NA,NA,NA,NA,NA,28,FALSE,21,61.1661560134,0,"American English","VSH_Exp2","2016_Mar_22_1751",NA
"Recordings/pata.wav","no","p","t","a","yes","a","pata","Training","bilabial","TrainingItems",0,42,42,69,NA,NA,NA,NA,NA,NA,NA,NA,NA,NA,28,FALSE,21,61.1661560134,0,"American English","VSH_Exp2","2016_Mar_22_1751",NA
"Recordings/bida.wav","yes","b","d","i","yes","a","bida","Training","bilabial","TrainingItems",0,43,43,77,NA,NA,NA,NA,NA,NA,NA,NA,NA,NA,28,FALSE,21,61.1661560134,0,"American English","VSH_Exp2","2016_Mar_22_1751",NA
"Recordings/tatu.wav","no","t","t","a","yes","u","tatu","Training","alveolar","TrainingItems",0,44,44,97,NA,NA,NA,NA,NA,NA,NA,NA,NA,NA,28,FALSE,21,61.1661560134,0,"American English","VSH_Exp2","2016_Mar_22_1751",NA
"Recordings/fifi.wav","no","f","f","i","no","i","fifi","Training","bilabial","TrainingItems",0,45,45,52,NA,NA,NA,NA,NA,NA,NA,NA,NA,NA,28,FALSE,21,61.1661560134,0,"American English","VSH_Exp2","2016_Mar_22_1751",NA
"Recordings/tipu.wav","no","t","p","i","yes","u","tipu","Training","alveolar","TrainingItems",0,46,46,65,NA,NA,NA,NA,NA,NA,NA,NA,NA,NA,28,FALSE,21,61.1661560134,0,"American English","VSH_Exp2","2016_Mar_22_1751",NA
"Recordings/viva.wav","yes","v","v","i","no","a","viva","Training","bilabial","TrainingItems",0,47,47,5,NA,NA,NA,NA,NA,NA,NA,NA,NA,NA,28,FALSE,21,61.1661560134,0,"American English","VSH_Exp2","2016_Mar_22_1751",NA
"Recordings/zazi.wav","yes","z","z","a","no","i","zazi","Training","alveolar","TrainingItems",0,48,48,80,NA,NA,NA,NA,NA,NA,NA,NA,NA,NA,28,FALSE,21,61.1661560134,0,"American English","VSH_Exp2","2016_Mar_22_1751",NA
"Recordings/sisu.wav","no","s","s","i","no","u","sisu","Training","alveolar","TrainingItems",0,49,49,17,NA,NA,NA,NA,NA,NA,NA,NA,NA,NA,28,FALSE,21,61.1661560134,0,"American English","VSH_Exp2","2016_Mar_22_1751",NA
"Recordings/zava.wav","yes","z","v","a","no","a","zava","Training","alveolar","TrainingItems",0,50,50,31,NA,NA,NA,NA,NA,NA,NA,NA,NA,NA,28,FALSE,21,61.1661560134,0,"American English","VSH_Exp2","2016_Mar_22_1751",NA
"Recordings/bubi.wav","yes","b","b","u","yes","i","bubi","Training","bilabial","TrainingItems",0,51,51,24,NA,NA,NA,NA,NA,NA,NA,NA,NA,NA,28,FALSE,21,61.1661560134,0,"American English","VSH_Exp2","2016_Mar_22_1751",NA
"Recordings/vazi.wav","yes","v","z","a","no","i","vazi","Training","bilabial","TrainingItems",0,52,52,85,NA,NA,NA,NA,NA,NA,NA,NA,NA,NA,28,FALSE,21,61.1661560134,0,"American English","VSH_Exp2","2016_Mar_22_1751",NA
"Recordings/pipi.wav","no","p","p","i","yes","i","pipi","Training","bilabial","TrainingItems",0,53,53,18,NA,NA,NA,NA,NA,NA,NA,NA,NA,NA,28,FALSE,21,61.1661560134,0,"American English","VSH_Exp2","2016_Mar_22_1751",NA
"Recordings/dibi.wav","yes","d","b","i","yes","i","dibi","Training","alveolar","TrainingItems",0,54,54,16,NA,NA,NA,NA,NA,NA,NA,NA,NA,NA,28,FALSE,21,61.1661560134,0,"American English","VSH_Exp2","2016_Mar_22_1751",NA
"Recordings/bibi.wav","yes","b","b","i","yes","i","bibi","Training","bilabial","TrainingItems",0,55,55,78,NA,NA,NA,NA,NA,NA,NA,NA,NA,NA,28,FALSE,21,61.1661560134,0,"American English","VSH_Exp2","2016_Mar_22_1751",NA
"Recordings/ziva.wav","yes","z","v","i","no","a","ziva","Training","alveolar","TrainingItems",0,56,56,57,NA,NA,NA,NA,NA,NA,NA,NA,NA,NA,28,FALSE,21,61.1661560134,0,"American English","VSH_Exp2","2016_Mar_22_1751",NA
"Recordings/pita.wav","no","p","t","i","yes","a","pita","Training","bilabial","TrainingItems",0,57,57,7,NA,NA,NA,NA,NA,NA,NA,NA,NA,NA,28,FALSE,21,61.1661560134,0,"American English","VSH_Exp2","2016_Mar_22_1751",NA
"Recordings/ziza.wav","yes","z","z","i","no","a","ziza","Training","alveolar","TrainingItems",0,58,58,10,NA,NA,NA,NA,NA,NA,NA,NA,NA,NA,28,FALSE,21,61.1661560134,0,"American English","VSH_Exp2","2016_Mar_22_1751",NA
"Recordings/vivu.wav","yes","v","v","i","no","u","vivu","Training","bilabial","TrainingItems",0,59,59,14,NA,NA,NA,NA,NA,NA,NA,NA,NA,NA,28,FALSE,21,61.1661560134,0,"American English","VSH_Exp2","2016_Mar_22_1751",NA
"Recordings/vuzu.wav","yes","v","z","u","no","u","vuzu","Training","bilabial","TrainingItems",0,60,60,83,NA,NA,NA,NA,NA,NA,NA,NA,NA,NA,28,FALSE,21,61.1661560134,0,"American English","VSH_Exp2","2016_Mar_22_1751",NA
"Recordings/vivi.wav","yes","v","v","i","no","i","vivi","Training","bilabial","TrainingItems",0,61,61,64,NA,NA,NA,NA,NA,NA,NA,NA,NA,NA,28,FALSE,21,61.1661560134,0,"American English","VSH_Exp2","2016_Mar_22_1751",NA
"Recordings/zivi.wav","yes","z","v","i","no","i","zivi","Training","alveolar","TrainingItems",0,62,62,8,NA,NA,NA,NA,NA,NA,NA,NA,NA,NA,28,FALSE,21,61.1661560134,0,"American English","VSH_Exp2","2016_Mar_22_1751",NA
"Recordings/zuzi.wav","yes","z","z","u","no","i","zuzi","Training","alveolar","TrainingItems",0,63,63,45,NA,NA,NA,NA,NA,NA,NA,NA,NA,NA,28,FALSE,21,61.1661560134,0,"American English","VSH_Exp2","2016_Mar_22_1751",NA
"Recordings/fufu.wav","no","f","f","u","no","u","fufu","Training","bilabial","TrainingItems",0,64,64,95,NA,NA,NA,NA,NA,NA,NA,NA,NA,NA,28,FALSE,21,61.1661560134,0,"American English","VSH_Exp2","2016_Mar_22_1751",NA
"Recordings/tuti.wav","no","t","t","u","yes","i","tuti","Training","alveolar","TrainingItems",0,65,65,34,NA,NA,NA,NA,NA,NA,NA,NA,NA,NA,28,FALSE,21,61.1661560134,0,"American English","VSH_Exp2","2016_Mar_22_1751",NA
"Recordings/buda.wav","yes","b","d","u","yes","a","buda","Training","bilabial","TrainingItems",0,66,66,0,NA,NA,NA,NA,NA,NA,NA,NA,NA,NA,28,FALSE,21,61.1661560134,0,"American English","VSH_Exp2","2016_Mar_22_1751",NA
"Recordings/vuva.wav","yes","v","v","u","no","a","vuva","Training","bilabial","TrainingItems",0,67,67,90,NA,NA,NA,NA,NA,NA,NA,NA,NA,NA,28,FALSE,21,61.1661560134,0,"American English","VSH_Exp2","2016_Mar_22_1751",NA
"Recordings/bidi.wav","yes","b","d","i","yes","i","bidi","Training","bilabial","TrainingItems",0,68,68,94,NA,NA,NA,NA,NA,NA,NA,NA,NA,NA,28,FALSE,21,61.1661560134,0,"American English","VSH_Exp2","2016_Mar_22_1751",NA
"Recordings/viza.wav","yes","v","z","i","no","a","viza","Training","bilabial","TrainingItems",0,69,69,99,NA,NA,NA,NA,NA,NA,NA,NA,NA,NA,28,FALSE,21,61.1661560134,0,"American English","VSH_Exp2","2016_Mar_22_1751",NA
"Recordings/vuvu.wav","yes","v","v","u","no","u","vuvu","Training","bilabial","TrainingItems",0,70,70,3,NA,NA,NA,NA,NA,NA,NA,NA,NA,NA,28,FALSE,21,61.1661560134,0,"American English","VSH_Exp2","2016_Mar_22_1751",NA
"Recordings/baba.wav","yes","b","b","a","yes","a","baba","Training","bilabial","TrainingItems",0,71,71,39,NA,NA,NA,NA,NA,NA,NA,NA,NA,NA,28,FALSE,21,61.1661560134,0,"American English","VSH_Exp2","2016_Mar_22_1751",NA
"Recordings/tati.wav","no","t","t","a","yes","i","tati","Training","alveolar","TrainingItems",0,72,72,41,NA,NA,NA,NA,NA,NA,NA,NA,NA,NA,28,FALSE,21,61.1661560134,0,"American English","VSH_Exp2","2016_Mar_22_1751",NA
"Recordings/vavi.wav","yes","v","v","a","no","i","vavi","Training","bilabial","TrainingItems",0,73,73,15,NA,NA,NA,NA,NA,NA,NA,NA,NA,NA,28,FALSE,21,61.1661560134,0,"American English","VSH_Exp2","2016_Mar_22_1751",NA
"Recordings/titi.wav","no","t","t","i","yes","i","titi","Training","alveolar","TrainingItems",0,74,74,49,NA,NA,NA,NA,NA,NA,NA,NA,NA,NA,28,FALSE,21,61.1661560134,0,"American English","VSH_Exp2","2016_Mar_22_1751",NA
"Recordings/tata.wav","no","t","t","a","yes","a","tata","Training","alveolar","TrainingItems",0,75,75,13,NA,NA,NA,NA,NA,NA,NA,NA,NA,NA,28,FALSE,21,61.1661560134,0,"American English","VSH_Exp2","2016_Mar_22_1751",NA
"Recordings/zivu.wav","yes","z","v","i","no","u","zivu","Training","alveolar","TrainingItems",0,76,76,28,NA,NA,NA,NA,NA,NA,NA,NA,NA,NA,28,FALSE,21,61.1661560134,0,"American English","VSH_Exp2","2016_Mar_22_1751",NA
"Recordings/sisi.wav","no","s","s","i","no","i","sisi","Training","alveolar","TrainingItems",0,77,77,29,NA,NA,NA,NA,NA,NA,NA,NA,NA,NA,28,FALSE,21,61.1661560134,0,"American English","VSH_Exp2","2016_Mar_22_1751",NA
"Recordings/papi.wav","no","p","p","a","yes","i","papi","Training","bilabial","TrainingItems",0,78,78,86,NA,NA,NA,NA,NA,NA,NA,NA,NA,NA,28,FALSE,21,61.1661560134,0,"American English","VSH_Exp2","2016_Mar_22_1751",NA
"Recordings/vazu.wav","yes","v","z","a","no","u","vazu","Training","bilabial","TrainingItems",0,79,79,89,NA,NA,NA,NA,NA,NA,NA,NA,NA,NA,28,FALSE,21,61.1661560134,0,"American English","VSH_Exp2","2016_Mar_22_1751",NA
"Recordings/dudu.wav","yes","d","d","u","yes","u","dudu","Training","alveolar","TrainingItems",0,80,80,73,NA,NA,NA,NA,NA,NA,NA,NA,NA,NA,28,FALSE,21,61.1661560134,0,"American English","VSH_Exp2","2016_Mar_22_1751",NA
"Recordings/dabu.wav","yes","d","b","a","yes","u","dabu","Training","alveolar","TrainingItems",0,81,81,48,NA,NA,NA,NA,NA,NA,NA,NA,NA,NA,28,FALSE,21,61.1661560134,0,"American English","VSH_Exp2","2016_Mar_22_1751",NA
"Recordings/dudi.wav","yes","d","d","u","yes","i","dudi","Training","alveolar","TrainingItems",0,82,82,66,NA,NA,NA,NA,NA,NA,NA,NA,NA,NA,28,FALSE,21,61.1661560134,0,"American English","VSH_Exp2","2016_Mar_22_1751",NA
"Recordings/bada.wav","yes","b","d","a","yes","a","bada","Training","bilabial","TrainingItems",0,83,83,55,NA,NA,NA,NA,NA,NA,NA,NA,NA,NA,28,FALSE,21,61.1661560134,0,"American English","VSH_Exp2","2016_Mar_22_1751",NA
"Recordings/zazu.wav","yes","z","z","a","no","u","zazu","Training","alveolar","TrainingItems",0,84,84,35,NA,NA,NA,NA,NA,NA,NA,NA,NA,NA,28,FALSE,21,61.1661560134,0,"American English","VSH_Exp2","2016_Mar_22_1751",NA
"Recordings/budi.wav","yes","b","d","u","yes","i","budi","Training","bilabial","TrainingItems",0,85,85,25,NA,NA,NA,NA,NA,NA,NA,NA,NA,NA,28,FALSE,21,61.1661560134,0,"American English","VSH_Exp2","2016_Mar_22_1751",NA
"Recordings/budu.wav","yes","b","d","u","yes","u","budu","Training","bilabial","TrainingItems",0,86,86,30,NA,NA,NA,NA,NA,NA,NA,NA,NA,NA,28,FALSE,21,61.1661560134,0,"American English","VSH_Exp2","2016_Mar_22_1751",NA
"Recordings/dabi.wav","yes","d","b","a","yes","i","dabi","Training","alveolar","TrainingItems",0,87,87,88,NA,NA,NA,NA,NA,NA,NA,NA,NA,NA,28,FALSE,21,61.1661560134,0,"American English","VSH_Exp2","2016_Mar_22_1751",NA
"Recordings/tutu.wav","no","t","t","u","yes","u","tutu","Training","alveolar","TrainingItems",0,88,88,46,NA,NA,NA,NA,NA,NA,NA,NA,NA,NA,28,FALSE,21,61.1661560134,0,"American English","VSH_Exp2","2016_Mar_22_1751",NA
"Recordings/buba.wav","yes","b","b","u","yes","a","buba","Training","bilabial","TrainingItems",0,89,89,4,NA,NA,NA,NA,NA,NA,NA,NA,NA,NA,28,FALSE,21,61.1661560134,0,"American English","VSH_Exp2","2016_Mar_22_1751",NA
"Recordings/zuvu.wav","yes","z","v","u","no","u","zuvu","Training","alveolar","TrainingItems",0,90,90,21,NA,NA,NA,NA,NA,NA,NA,NA,NA,NA,28,FALSE,21,61.1661560134,0,"American English","VSH_Exp2","2016_Mar_22_1751",NA
"Recordings/diba.wav","yes","d","b","i","yes","a","diba","Training","alveolar","TrainingItems",0,91,91,47,NA,NA,NA,NA,NA,NA,NA,NA,NA,NA,28,FALSE,21,61.1661560134,0,"American English","VSH_Exp2","2016_Mar_22_1751",NA
"Recordings/puta.wav","no","p","t","u","yes","a","puta","Training","bilabial","TrainingItems",0,92,92,71,NA,NA,NA,NA,NA,NA,NA,NA,NA,NA,28,FALSE,21,61.1661560134,0,"American English","VSH_Exp2","2016_Mar_22_1751",NA
"Recordings/tipi.wav","no","t","p","i","yes","i","tipi","Training","alveolar","TrainingItems",0,93,93,67,NA,NA,NA,NA,NA,NA,NA,NA,NA,NA,28,FALSE,21,61.1661560134,0,"American English","VSH_Exp2","2016_Mar_22_1751",NA
"Recordings/vizi.wav","yes","v","z","i","no","i","vizi","Training","bilabial","TrainingItems",0,94,94,93,NA,NA,NA,NA,NA,NA,NA,NA,NA,NA,28,FALSE,21,61.1661560134,0,"American English","VSH_Exp2","2016_Mar_22_1751",NA
"Recordings/dubi.wav","yes","d","b","u","yes","i","dubi","Training","alveolar","TrainingItems",0,95,95,79,NA,NA,NA,NA,NA,NA,NA,NA,NA,NA,28,FALSE,21,61.1661560134,0,"American English","VSH_Exp2","2016_Mar_22_1751",NA
"Recordings/tapa.wav","no","t","p","a","yes","a","tapa","Training","alveolar","TrainingItems",0,96,96,1,NA,NA,NA,NA,NA,NA,NA,NA,NA,NA,28,FALSE,21,61.1661560134,0,"American English","VSH_Exp2","2016_Mar_22_1751",NA
"Recordings/daba.wav","yes","d","b","a","yes","a","daba","Training","alveolar","TrainingItems",0,97,97,62,NA,NA,NA,NA,NA,NA,NA,NA,NA,NA,28,FALSE,21,61.1661560134,0,"American English","VSH_Exp2","2016_Mar_22_1751",NA
"Recordings/fafi.wav","no","f","f","a","no","i","fafi","Training","bilabial","TrainingItems",0,98,98,36,NA,NA,NA,NA,NA,NA,NA,NA,NA,NA,28,FALSE,21,61.1661560134,0,"American English","VSH_Exp2","2016_Mar_22_1751",NA
"Recordings/badi.wav","yes","b","d","a","yes","i","badi","Training","bilabial","TrainingItems",0,99,99,50,NA,NA,NA,NA,NA,NA,NA,NA,NA,NA,28,FALSE,21,61.1661560134,0,"American English","VSH_Exp2","2016_Mar_22_1751",NA
"Recordings/pata.wav","no","p","t","a","yes","a","pata","Training","bilabial","TrainingItems",1,0,100,69,NA,NA,NA,NA,NA,NA,NA,NA,NA,NA,28,FALSE,21,61.1661560134,0,"American English","VSH_Exp2","2016_Mar_22_1751",NA
"Recordings/dibu.wav","yes","d","b","i","yes","u","dibu","Training","alveolar","TrainingItems",1,1,101,23,NA,NA,NA,NA,NA,NA,NA,NA,NA,NA,28,FALSE,21,61.1661560134,0,"American English","VSH_Exp2","2016_Mar_22_1751",NA
"Recordings/vazi.wav","yes","v","z","a","no","i","vazi","Training","bilabial","TrainingItems",1,2,102,85,NA,NA,NA,NA,NA,NA,NA,NA,NA,NA,28,FALSE,21,61.1661560134,0,"American English","VSH_Exp2","2016_Mar_22_1751",NA
"Recordings/dibi.wav","yes","d","b","i","yes","i","dibi","Training","alveolar","TrainingItems",1,3,103,16,NA,NA,NA,NA,NA,NA,NA,NA,NA,NA,28,FALSE,21,61.1661560134,0,"American English","VSH_Exp2","2016_Mar_22_1751",NA
"Recordings/zivi.wav","yes","z","v","i","no","i","zivi","Training","alveolar","TrainingItems",1,4,104,8,NA,NA,NA,NA,NA,NA,NA,NA,NA,NA,28,FALSE,21,61.1661560134,0,"American English","VSH_Exp2","2016_Mar_22_1751",NA
"Recordings/buba.wav","yes","b","b","u","yes","a","buba","Training","bilabial","TrainingItems",1,5,105,4,NA,NA,NA,NA,NA,NA,NA,NA,NA,NA,28,FALSE,21,61.1661560134,0,"American English","VSH_Exp2","2016_Mar_22_1751",NA
"Recordings/zavu.wav","yes","z","v","a","no","u","zavu","Training","alveolar","TrainingItems",1,6,106,44,NA,NA,NA,NA,NA,NA,NA,NA,NA,NA,28,FALSE,21,61.1661560134,0,"American English","VSH_Exp2","2016_Mar_22_1751",NA
"Recordings/vava.wav","yes","v","v","a","no","a","vava","Training","bilabial","TrainingItems",1,7,107,32,NA,NA,NA,NA,NA,NA,NA,NA,NA,NA,28,FALSE,21,61.1661560134,0,"American English","VSH_Exp2","2016_Mar_22_1751",NA
"Recordings/bubi.wav","yes","b","b","u","yes","i","bubi","Training","bilabial","TrainingItems",1,8,108,24,NA,NA,NA,NA,NA,NA,NA,NA,NA,NA,28,FALSE,21,61.1661560134,0,"American English","VSH_Exp2","2016_Mar_22_1751",NA
"Recordings/pipu.wav","no","p","p","i","yes","u","pipu","Training","bilabial","TrainingItems",1,9,109,63,NA,NA,NA,NA,NA,NA,NA,NA,NA,NA,28,FALSE,21,61.1661560134,0,"American English","VSH_Exp2","2016_Mar_22_1751",NA
"Recordings/bada.wav","yes","b","d","a","yes","a","bada","Training","bilabial","TrainingItems",1,10,110,55,NA,NA,NA,NA,NA,NA,NA,NA,NA,NA,28,FALSE,21,61.1661560134,0,"American English","VSH_Exp2","2016_Mar_22_1751",NA
"Recordings/pipa.wav","no","p","p","i","yes","a","pipa","Training","bilabial","TrainingItems",1,11,111,26,NA,NA,NA,NA,NA,NA,NA,NA,NA,NA,28,FALSE,21,61.1661560134,0,"American English","VSH_Exp2","2016_Mar_22_1751",NA
"Recordings/papa.wav","no","p","p","a","yes","a","papa","Training","bilabial","TrainingItems",1,12,112,22,NA,NA,NA,NA,NA,NA,NA,NA,NA,NA,28,FALSE,21,61.1661560134,0,"American English","VSH_Exp2","2016_Mar_22_1751",NA
"Recordings/pupu.wav","no","p","p","u","yes","u","pupu","Training","bilabial","TrainingItems",1,13,113,27,NA,NA,NA,NA,NA,NA,NA,NA,NA,NA,28,FALSE,21,61.1661560134,0,"American English","VSH_Exp2","2016_Mar_22_1751",NA
"Recordings/vuvi.wav","yes","v","v","u","no","i","vuvi","Training","bilabial","TrainingItems",1,14,114,9,NA,NA,NA,NA,NA,NA,NA,NA,NA,NA,28,FALSE,21,61.1661560134,0,"American English","VSH_Exp2","2016_Mar_22_1751",NA
"Recordings/tuta.wav","no","t","t","u","yes","a","tuta","Training","alveolar","TrainingItems",1,15,115,20,NA,NA,NA,NA,NA,NA,NA,NA,NA,NA,28,FALSE,21,61.1661560134,0,"American English","VSH_Exp2","2016_Mar_22_1751",NA
"Recordings/bidi.wav","yes","b","d","i","yes","i","bidi","Training","bilabial","TrainingItems",1,16,116,94,NA,NA,NA,NA,NA,NA,NA,NA,NA,NA,28,FALSE,21,61.1661560134,0,"American English","VSH_Exp2","2016_Mar_22_1751",NA
"Recordings/ziva.wav","yes","z","v","i","no","a","ziva","Training","alveolar","TrainingItems",1,17,117,57,NA,NA,NA,NA,NA,NA,NA,NA,NA,NA,28,FALSE,21,61.1661560134,0,"American English","VSH_Exp2","2016_Mar_22_1751",NA
"Recordings/pupa.wav","no","p","p","u","yes","a","pupa","Training","bilabial","TrainingItems",1,18,118,84,NA,NA,NA,NA,NA,NA,NA,NA,NA,NA,28,FALSE,21,61.1661560134,0,"American English","VSH_Exp2","2016_Mar_22_1751",NA
"Recordings/zivu.wav","yes","z","v","i","no","u","zivu","Training","alveolar","TrainingItems",1,19,119,28,NA,NA,NA,NA,NA,NA,NA,NA,NA,NA,28,FALSE,21,61.1661560134,0,"American English","VSH_Exp2","2016_Mar_22_1751",NA
"Recordings/dadi.wav","yes","d","d","a","yes","i","dadi","Training","alveolar","TrainingItems",1,20,120,68,NA,NA,NA,NA,NA,NA,NA,NA,NA,NA,28,FALSE,21,61.1661560134,0,"American English","VSH_Exp2","2016_Mar_22_1751",NA
"Recordings/baba.wav","yes","b","b","a","yes","a","baba","Training","bilabial","TrainingItems",1,21,121,39,NA,NA,NA,NA,NA,NA,NA,NA,NA,NA,28,FALSE,21,61.1661560134,0,"American English","VSH_Exp2","2016_Mar_22_1751",NA
"Recordings/vuzi.wav","yes","v","z","u","no","i","vuzi","Training","bilabial","TrainingItems",1,22,122,72,NA,NA,NA,NA,NA,NA,NA,NA,NA,NA,28,FALSE,21,61.1661560134,0,"American English","VSH_Exp2","2016_Mar_22_1751",NA
"Recordings/bidu.wav","yes","b","d","i","yes","u","bidu","Training","bilabial","TrainingItems",1,23,123,92,NA,NA,NA,NA,NA,NA,NA,NA,NA,NA,28,FALSE,21,61.1661560134,0,"American English","VSH_Exp2","2016_Mar_22_1751",NA
"Recordings/sisu.wav","no","s","s","i","no","u","sisu","Training","alveolar","TrainingItems",1,24,124,17,NA,NA,NA,NA,NA,NA,NA,NA,NA,NA,28,FALSE,21,61.1661560134,0,"American English","VSH_Exp2","2016_Mar_22_1751",NA
"Recordings/fafa.wav","no","f","f","a","no","a","fafa","Training","bilabial","TrainingItems",1,25,125,91,NA,NA,NA,NA,NA,NA,NA,NA,NA,NA,28,FALSE,21,61.1661560134,0,"American English","VSH_Exp2","2016_Mar_22_1751",NA
"Recordings/pipi.wav","no","p","p","i","yes","i","pipi","Training","bilabial","TrainingItems",1,26,126,18,NA,NA,NA,NA,NA,NA,NA,NA,NA,NA,28,FALSE,21,61.1661560134,0,"American English","VSH_Exp2","2016_Mar_22_1751",NA
"Recordings/tapa.wav","no","t","p","a","yes","a","tapa","Training","alveolar","TrainingItems",1,27,127,1,NA,NA,NA,NA,NA,NA,NA,NA,NA,NA,28,FALSE,21,61.1661560134,0,"American English","VSH_Exp2","2016_Mar_22_1751",NA
"Recordings/vuvu.wav","yes","v","v","u","no","u","vuvu","Training","bilabial","TrainingItems",1,28,128,3,NA,NA,NA,NA,NA,NA,NA,NA,NA,NA,28,FALSE,21,61.1661560134,0,"American English","VSH_Exp2","2016_Mar_22_1751",NA
"Recordings/vuva.wav","yes","v","v","u","no","a","vuva","Training","bilabial","TrainingItems",1,29,129,90,NA,NA,NA,NA,NA,NA,NA,NA,NA,NA,28,FALSE,21,61.1661560134,0,"American English","VSH_Exp2","2016_Mar_22_1751",NA
"Recordings/dubi.wav","yes","d","b","u","yes","i","dubi","Training","alveolar","TrainingItems",1,30,130,79,NA,NA,NA,NA,NA,NA,NA,NA,NA,NA,28,FALSE,21,61.1661560134,0,"American English","VSH_Exp2","2016_Mar_22_1751",NA
"Recordings/fufa.wav","no","f","f","u","no","a","fufa","Training","bilabial","TrainingItems",1,31,131,54,NA,NA,NA,NA,NA,NA,NA,NA,NA,NA,28,FALSE,21,61.1661560134,0,"American English","VSH_Exp2","2016_Mar_22_1751",NA
"Recordings/dudu.wav","yes","d","d","u","yes","u","dudu","Training","alveolar","TrainingItems",1,32,132,73,NA,NA,NA,NA,NA,NA,NA,NA,NA,NA,28,FALSE,21,61.1661560134,0,"American English","VSH_Exp2","2016_Mar_22_1751",NA
"Recordings/puta.wav","no","p","t","u","yes","a","puta","Training","bilabial","TrainingItems",1,33,133,71,NA,NA,NA,NA,NA,NA,NA,NA,NA,NA,28,FALSE,21,61.1661560134,0,"American English","VSH_Exp2","2016_Mar_22_1751",NA
"Recordings/pati.wav","no","p","t","a","yes","i","pati","Training","bilabial","TrainingItems",1,34,134,58,NA,NA,NA,NA,NA,NA,NA,NA,NA,NA,28,FALSE,21,61.1661560134,0,"American English","VSH_Exp2","2016_Mar_22_1751",NA
"Recordings/tuti.wav","no","t","t","u","yes","i","tuti","Training","alveolar","TrainingItems",1,35,135,34,NA,NA,NA,NA,NA,NA,NA,NA,NA,NA,28,FALSE,21,61.1661560134,0,"American English","VSH_Exp2","2016_Mar_22_1751",NA
"Recordings/tipu.wav","no","t","p","i","yes","u","tipu","Training","alveolar","TrainingItems",1,36,136,65,NA,NA,NA,NA,NA,NA,NA,NA,NA,NA,28,FALSE,21,61.1661560134,0,"American English","VSH_Exp2","2016_Mar_22_1751",NA
"Recordings/badi.wav","yes","b","d","a","yes","i","badi","Training","bilabial","TrainingItems",1,37,137,50,NA,NA,NA,NA,NA,NA,NA,NA,NA,NA,28,FALSE,21,61.1661560134,0,"American English","VSH_Exp2","2016_Mar_22_1751",NA
"Recordings/tati.wav","no","t","t","a","yes","i","tati","Training","alveolar","TrainingItems",1,38,138,41,NA,NA,NA,NA,NA,NA,NA,NA,NA,NA,28,FALSE,21,61.1661560134,0,"American English","VSH_Exp2","2016_Mar_22_1751",NA
"Recordings/zizi.wav","yes","z","z","i","no","i","zizi","Training","alveolar","TrainingItems",1,39,139,76,NA,NA,NA,NA,NA,NA,NA,NA,NA,NA,28,FALSE,21,61.1661560134,0,"American English","VSH_Exp2","2016_Mar_22_1751",NA
"Recordings/tata.wav","no","t","t","a","yes","a","tata","Training","alveolar","TrainingItems",1,40,140,13,NA,NA,NA,NA,NA,NA,NA,NA,NA,NA,28,FALSE,21,61.1661560134,0,"American English","VSH_Exp2","2016_Mar_22_1751",NA
"Recordings/dida.wav","yes","d","d","i","yes","a","dida","Training","alveolar","TrainingItems",1,41,141,19,NA,NA,NA,NA,NA,NA,NA,NA,NA,NA,28,FALSE,21,61.1661560134,0,"American English","VSH_Exp2","2016_Mar_22_1751",NA
"Recordings/puti.wav","no","p","t","u","yes","i","puti","Training","bilabial","TrainingItems",1,42,142,37,NA,NA,NA,NA,NA,NA,NA,NA,NA,NA,28,FALSE,21,61.1661560134,0,"American English","VSH_Exp2","2016_Mar_22_1751",NA
"Recordings/didi.wav","yes","d","d","i","yes","i","didi","Training","alveolar","TrainingItems",1,43,143,53,NA,NA,NA,NA,NA,NA,NA,NA,NA,NA,28,FALSE,21,61.1661560134,0,"American English","VSH_Exp2","2016_Mar_22_1751",NA
"Recordings/viva.wav","yes","v","v","i","no","a","viva","Training","bilabial","TrainingItems",1,44,144,5,NA,NA,NA,NA,NA,NA,NA,NA,NA,NA,28,FALSE,21,61.1661560134,0,"American English","VSH_Exp2","2016_Mar_22_1751",NA
"Recordings/daba.wav","yes","d","b","a","yes","a","daba","Training","alveolar","TrainingItems",1,45,145,62,NA,NA,NA,NA,NA,NA,NA,NA,NA,NA,28,FALSE,21,61.1661560134,0,"American English","VSH_Exp2","2016_Mar_22_1751",NA
"Recordings/vivi.wav","yes","v","v","i","no","i","vivi","Training","bilabial","TrainingItems",1,46,146,64,NA,NA,NA,NA,NA,NA,NA,NA,NA,NA,28,FALSE,21,61.1661560134,0,"American English","VSH_Exp2","2016_Mar_22_1751",NA
"Recordings/titi.wav","no","t","t","i","yes","i","titi","Training","alveolar","TrainingItems",1,47,147,49,NA,NA,NA,NA,NA,NA,NA,NA,NA,NA,28,FALSE,21,61.1661560134,0,"American English","VSH_Exp2","2016_Mar_22_1751",NA
"Recordings/zuza.wav","yes","z","z","u","no","a","zuza","Training","alveolar","TrainingItems",1,48,148,59,NA,NA,NA,NA,NA,NA,NA,NA,NA,NA,28,FALSE,21,61.1661560134,0,"American English","VSH_Exp2","2016_Mar_22_1751",NA
"Recordings/bibi.wav","yes","b","b","i","yes","i","bibi","Training","bilabial","TrainingItems",1,49,149,78,NA,NA,NA,NA,NA,NA,NA,NA,NA,NA,28,FALSE,21,61.1661560134,0,"American English","VSH_Exp2","2016_Mar_22_1751",NA
"Recordings/tipi.wav","no","t","p","i","yes","i","tipi","Training","alveolar","TrainingItems",1,50,150,67,NA,NA,NA,NA,NA,NA,NA,NA,NA,NA,28,FALSE,21,61.1661560134,0,"American English","VSH_Exp2","2016_Mar_22_1751",NA
"Recordings/ziza.wav","yes","z","z","i","no","a","ziza","Training","alveolar","TrainingItems",1,51,151,10,NA,NA,NA,NA,NA,NA,NA,NA,NA,NA,28,FALSE,21,61.1661560134,0,"American English","VSH_Exp2","2016_Mar_22_1751",NA
"Recordings/bida.wav","yes","b","d","i","yes","a","bida","Training","bilabial","TrainingItems",1,52,152,77,NA,NA,NA,NA,NA,NA,NA,NA,NA,NA,28,FALSE,21,61.1661560134,0,"American English","VSH_Exp2","2016_Mar_22_1751",NA
"Recordings/babi.wav","yes","b","b","a","yes","i","babi","Training","bilabial","TrainingItems",1,53,153,81,NA,NA,NA,NA,NA,NA,NA,NA,NA,NA,28,FALSE,21,61.1661560134,0,"American English","VSH_Exp2","2016_Mar_22_1751",NA
"Recordings/zuva.wav","yes","z","v","u","no","a","zuva","Training","alveolar","TrainingItems",1,54,154,43,NA,NA,NA,NA,NA,NA,NA,NA,NA,NA,28,FALSE,21,61.1661560134,0,"American English","VSH_Exp2","2016_Mar_22_1751",NA
"Recordings/vuza.wav","yes","v","z","u","no","a","vuza","Training","bilabial","TrainingItems",1,55,155,70,NA,NA,NA,NA,NA,NA,NA,NA,NA,NA,28,FALSE,21,61.1661560134,0,"American English","VSH_Exp2","2016_Mar_22_1751",NA
"Recordings/vizi.wav","yes","v","z","i","no","i","vizi","Training","bilabial","TrainingItems",1,56,156,93,NA,NA,NA,NA,NA,NA,NA,NA,NA,NA,28,FALSE,21,61.1661560134,0,"American English","VSH_Exp2","2016_Mar_22_1751",NA
"Recordings/putu.wav","no","p","t","u","yes","u","putu","Training","bilabial","TrainingItems",1,57,157,38,NA,NA,NA,NA,NA,NA,NA,NA,NA,NA,28,FALSE,21,61.1661560134,0,"American English","VSH_Exp2","2016_Mar_22_1751",NA
"Recordings/zaza.wav","yes","z","z","a","no","a","zaza","Training","alveolar","TrainingItems",1,58,158,98,NA,NA,NA,NA,NA,NA,NA,NA,NA,NA,28,FALSE,21,61.1661560134,0,"American English","VSH_Exp2","2016_Mar_22_1751",NA
"Recordings/titu.wav","no","t","t","i","yes","u","titu","Training","alveolar","TrainingItems",1,59,159,33,NA,NA,NA,NA,NA,NA,NA,NA,NA,NA,28,FALSE,21,61.1661560134,0,"American English","VSH_Exp2","2016_Mar_22_1751",NA
"Recordings/fifi.wav","no","f","f","i","no","i","fifi","Training","bilabial","TrainingItems",1,60,160,52,NA,NA,NA,NA,NA,NA,NA,NA,NA,NA,28,FALSE,21,61.1661560134,0,"American English","VSH_Exp2","2016_Mar_22_1751",NA
"Recordings/badu.wav","yes","b","d","a","yes","u","badu","Training","bilabial","TrainingItems",1,61,161,87,NA,NA,NA,NA,NA,NA,NA,NA,NA,NA,28,FALSE,21,61.1661560134,0,"American English","VSH_Exp2","2016_Mar_22_1751",NA
"Recordings/tutu.wav","no","t","t","u","yes","u","tutu","Training","alveolar","TrainingItems",1,62,162,46,NA,NA,NA,NA,NA,NA,NA,NA,NA,NA,28,FALSE,21,61.1661560134,0,"American English","VSH_Exp2","2016_Mar_22_1751",NA
"Recordings/fafi.wav","no","f","f","a","no","i","fafi","Training","bilabial","TrainingItems",1,63,163,36,NA,NA,NA,NA,NA,NA,NA,NA,NA,NA,28,FALSE,21,61.1661560134,0,"American English","VSH_Exp2","2016_Mar_22_1751",NA
"Recordings/dudi.wav","yes","d","d","u","yes","i","dudi","Training","alveolar","TrainingItems",1,64,164,66,NA,NA,NA,NA,NA,NA,NA,NA,NA,NA,28,FALSE,21,61.1661560134,0,"American English","VSH_Exp2","2016_Mar_22_1751",NA
"Recordings/vavi.wav","yes","v","v","a","no","i","vavi","Training","bilabial","TrainingItems",1,65,165,15,NA,NA,NA,NA,NA,NA,NA,NA,NA,NA,28,FALSE,21,61.1661560134,0,"American English","VSH_Exp2","2016_Mar_22_1751",NA
"Recordings/papi.wav","no","p","p","a","yes","i","papi","Training","bilabial","TrainingItems",1,66,166,86,NA,NA,NA,NA,NA,NA,NA,NA,NA,NA,28,FALSE,21,61.1661560134,0,"American English","VSH_Exp2","2016_Mar_22_1751",NA
"Recordings/viza.wav","yes","v","z","i","no","a","viza","Training","bilabial","TrainingItems",1,67,167,99,NA,NA,NA,NA,NA,NA,NA,NA,NA,NA,28,FALSE,21,61.1661560134,0,"American English","VSH_Exp2","2016_Mar_22_1751",NA
"Recordings/tatu.wav","no","t","t","a","yes","u","tatu","Training","alveolar","TrainingItems",1,68,168,97,NA,NA,NA,NA,NA,NA,NA,NA,NA,NA,28,FALSE,21,61.1661560134,0,"American English","VSH_Exp2","2016_Mar_22_1751",NA
"Recordings/dabu.wav","yes","d","b","a","yes","u","dabu","Training","alveolar","TrainingItems",1,69,169,48,NA,NA,NA,NA,NA,NA,NA,NA,NA,NA,28,FALSE,21,61.1661560134,0,"American English","VSH_Exp2","2016_Mar_22_1751",NA
"Recordings/vuzu.wav","yes","v","z","u","no","u","vuzu","Training","bilabial","TrainingItems",1,70,170,83,NA,NA,NA,NA,NA,NA,NA,NA,NA,NA,28,FALSE,21,61.1661560134,0,"American English","VSH_Exp2","2016_Mar_22_1751",NA
"Recordings/zava.wav","yes","z","v","a","no","a","zava","Training","alveolar","TrainingItems",1,71,171,31,NA,NA,NA,NA,NA,NA,NA,NA,NA,NA,28,FALSE,21,61.1661560134,0,"American English","VSH_Exp2","2016_Mar_22_1751",NA
"Recordings/diba.wav","yes","d","b","i","yes","a","diba","Training","alveolar","TrainingItems",1,72,172,47,NA,NA,NA,NA,NA,NA,NA,NA,NA,NA,28,FALSE,21,61.1661560134,0,"American English","VSH_Exp2","2016_Mar_22_1751",NA
"Recordings/budi.wav","yes","b","d","u","yes","i","budi","Training","bilabial","TrainingItems",1,73,173,25,NA,NA,NA,NA,NA,NA,NA,NA,NA,NA,28,FALSE,21,61.1661560134,0,"American English","VSH_Exp2","2016_Mar_22_1751",NA
"Recordings/zuvi.wav","yes","z","v","u","no","i","zuvi","Training","alveolar","TrainingItems",1,74,174,40,NA,NA,NA,NA,NA,NA,NA,NA,NA,NA,28,FALSE,21,61.1661560134,0,"American English","VSH_Exp2","2016_Mar_22_1751",NA
"Recordings/tipa.wav","no","t","p","i","yes","a","tipa","Training","alveolar","TrainingItems",1,75,175,2,NA,NA,NA,NA,NA,NA,NA,NA,NA,NA,28,FALSE,21,61.1661560134,0,"American English","VSH_Exp2","2016_Mar_22_1751",NA
"Recordings/budu.wav","yes","b","d","u","yes","u","budu","Training","bilabial","TrainingItems",1,76,176,30,NA,NA,NA,NA,NA,NA,NA,NA,NA,NA,28,FALSE,21,61.1661560134,0,"American English","VSH_Exp2","2016_Mar_22_1751",NA
"Recordings/vazu.wav","yes","v","z","a","no","u","vazu","Training","bilabial","TrainingItems",1,77,177,89,NA,NA,NA,NA,NA,NA,NA,NA,NA,NA,28,FALSE,21,61.1661560134,0,"American English","VSH_Exp2","2016_Mar_22_1751",NA
"Recordings/zazu.wav","yes","z","z","a","no","u","zazu","Training","alveolar","TrainingItems",1,78,178,35,NA,NA,NA,NA,NA,NA,NA,NA,NA,NA,28,FALSE,21,61.1661560134,0,"American English","VSH_Exp2","2016_Mar_22_1751",NA
"Recordings/babu.wav","yes","b","b","a","yes","u","babu","Training","bilabial","TrainingItems",1,79,179,6,NA,NA,NA,NA,NA,NA,NA,NA,NA,NA,28,FALSE,21,61.1661560134,0,"American English","VSH_Exp2","2016_Mar_22_1751",NA
"Recordings/tupa.wav","no","t","p","u","yes","a","tupa","Training","alveolar","TrainingItems",1,80,180,61,NA,NA,NA,NA,NA,NA,NA,NA,NA,NA,28,FALSE,21,61.1661560134,0,"American English","VSH_Exp2","2016_Mar_22_1751",NA
"Recordings/sisa.wav","no","s","s","i","no","a","sisa","Training","alveolar","TrainingItems",1,81,181,60,NA,NA,NA,NA,NA,NA,NA,NA,NA,NA,28,FALSE,21,61.1661560134,0,"American English","VSH_Exp2","2016_Mar_22_1751",NA
"Recordings/duda.wav","yes","d","d","u","yes","a","duda","Training","alveolar","TrainingItems",1,82,182,11,NA,NA,NA,NA,NA,NA,NA,NA,NA,NA,28,FALSE,21,61.1661560134,0,"American English","VSH_Exp2","2016_Mar_22_1751",NA
"Recordings/susi.wav","no","s","s","u","no","i","susi","Training","alveolar","TrainingItems",1,83,183,74,NA,NA,NA,NA,NA,NA,NA,NA,NA,NA,28,FALSE,21,61.1661560134,0,"American English","VSH_Exp2","2016_Mar_22_1751",NA
"Recordings/piti.wav","no","p","t","i","yes","i","piti","Training","bilabial","TrainingItems",1,84,184,56,NA,NA,NA,NA,NA,NA,NA,NA,NA,NA,28,FALSE,21,61.1661560134,0,"American English","VSH_Exp2","2016_Mar_22_1751",NA
"Recordings/zavi.wav","yes","z","v","a","no","i","zavi","Training","alveolar","TrainingItems",1,85,185,82,NA,NA,NA,NA,NA,NA,NA,NA,NA,NA,28,FALSE,21,61.1661560134,0,"American English","VSH_Exp2","2016_Mar_22_1751",NA
"Recordings/buda.wav","yes","b","d","u","yes","a","buda","Training","bilabial","TrainingItems",1,86,186,0,NA,NA,NA,NA,NA,NA,NA,NA,NA,NA,28,FALSE,21,61.1661560134,0,"American English","VSH_Exp2","2016_Mar_22_1751",NA
"Recordings/pita.wav","no","p","t","i","yes","a","pita","Training","bilabial","TrainingItems",1,87,187,7,NA,NA,NA,NA,NA,NA,NA,NA,NA,NA,28,FALSE,21,61.1661560134,0,"American English","VSH_Exp2","2016_Mar_22_1751",NA
"Recordings/zuzi.wav","yes","z","z","u","no","i","zuzi","Training","alveolar","TrainingItems",1,88,188,45,NA,NA,NA,NA,NA,NA,NA,NA,NA,NA,28,FALSE,21,61.1661560134,0,"American English","VSH_Exp2","2016_Mar_22_1751",NA
"Recordings/vivu.wav","yes","v","v","i","no","u","vivu","Training","bilabial","TrainingItems",1,89,189,14,NA,NA,NA,NA,NA,NA,NA,NA,NA,NA,28,FALSE,21,61.1661560134,0,"American English","VSH_Exp2","2016_Mar_22_1751",NA
"Recordings/dabi.wav","yes","d","b","a","yes","i","dabi","Training","alveolar","TrainingItems",1,90,190,88,NA,NA,NA,NA,NA,NA,NA,NA,NA,NA,28,FALSE,21,61.1661560134,0,"American English","VSH_Exp2","2016_Mar_22_1751",NA
"Recordings/papu.wav","no","p","p","a","yes","u","papu","Training","bilabial","TrainingItems",1,91,191,51,NA,NA,NA,NA,NA,NA,NA,NA,NA,NA,28,FALSE,21,61.1661560134,0,"American English","VSH_Exp2","2016_Mar_22_1751",NA
"Recordings/pupi.wav","no","p","p","u","yes","i","pupi","Training","bilabial","TrainingItems",1,92,192,96,NA,NA,NA,NA,NA,NA,NA,NA,NA,NA,28,FALSE,21,61.1661560134,0,"American English","VSH_Exp2","2016_Mar_22_1751",NA
"Recordings/dadu.wav","yes","d","d","a","yes","u","dadu","Training","alveolar","TrainingItems",1,93,193,12,NA,NA,NA,NA,NA,NA,NA,NA,NA,NA,28,FALSE,21,61.1661560134,0,"American English","VSH_Exp2","2016_Mar_22_1751",NA
"Recordings/sasi.wav","no","s","s","a","no","i","sasi","Training","alveolar","TrainingItems",1,94,194,75,NA,NA,NA,NA,NA,NA,NA,NA,NA,NA,28,FALSE,21,61.1661560134,0,"American English","VSH_Exp2","2016_Mar_22_1751",NA
"Recordings/zazi.wav","yes","z","z","a","no","i","zazi","Training","alveolar","TrainingItems",1,95,195,80,NA,NA,NA,NA,NA,NA,NA,NA,NA,NA,28,FALSE,21,61.1661560134,0,"American English","VSH_Exp2","2016_Mar_22_1751",NA
"Recordings/zuvu.wav","yes","z","v","u","no","u","zuvu","Training","alveolar","TrainingItems",1,96,196,21,NA,NA,NA,NA,NA,NA,NA,NA,NA,NA,28,FALSE,21,61.1661560134,0,"American English","VSH_Exp2","2016_Mar_22_1751",NA
"Recordings/fufu.wav","no","f","f","u","no","u","fufu","Training","bilabial","TrainingItems",1,97,197,95,NA,NA,NA,NA,NA,NA,NA,NA,NA,NA,28,FALSE,21,61.1661560134,0,"American English","VSH_Exp2","2016_Mar_22_1751",NA
"Recordings/pitu.wav","no","p","t","i","yes","u","pitu","Training","bilabial","TrainingItems",1,98,198,42,NA,NA,NA,NA,NA,NA,NA,NA,NA,NA,28,FALSE,21,61.1661560134,0,"American English","VSH_Exp2","2016_Mar_22_1751",NA
"Recordings/sisi.wav","no","s","s","i","no","i","sisi","Training","alveolar","TrainingItems",1,99,199,29,NA,NA,NA,NA,NA,NA,NA,NA,NA,NA,28,FALSE,21,61.1661560134,0,"American English","VSH_Exp2","2016_Mar_22_1751",NA
NA,NA,NA,NA,NA,NA,NA,NA,NA,NA,NA,NA,NA,NA,NA,NA,NA,NA,NA,NA,NA,"space",3.50467586517,NA,NA,28,FALSE,21,61.1661560134,0,"American English","VSH_Exp2","2016_Mar_22_1751",NA
"Recordings/zibi.wav","yes","z","b","i","no","i","zibi","Controls","alveolar","VoicingControls",NA,NA,NA,NA,0,0,0,48,NA,NA,NA,NA,"No",8.028,28,FALSE,21,61.1661560134,0,"American English","VSH_Exp2","2016_Mar_22_1751",NA
"Recordings/vaza.wav","yes","v","z","a","no","a","vaza","Test","bilabial","NewWordTestStimuli",NA,NA,NA,NA,0,1,1,26,NA,NA,NA,NA,"Yes",4.707,28,FALSE,21,61.1661560134,0,"American English","VSH_Exp2","2016_Mar_22_1751",NA
"Recordings/vuza.wav","yes","v","z","u","no","a","vuza","Test","bilabial","OldTestStimuli",NA,NA,NA,NA,0,2,2,2,NA,NA,NA,NA,"Yes",3.773,28,FALSE,21,61.1661560134,0,"American English","VSH_Exp2","2016_Mar_22_1751",NA
"Recordings/safu.wav","no","s","f","a","no","u","safu","Test","alveolar","NewConsTestStimuli",NA,NA,NA,NA,0,3,3,13,NA,NA,NA,NA,"No",2.12,28,FALSE,21,61.1661560134,0,"American English","VSH_Exp2","2016_Mar_22_1751",NA
"Recordings/zavi.wav","yes","z","v","a","no","i","zavi","Test","alveolar","OldTestStimuli",NA,NA,NA,NA,0,4,4,3,NA,NA,NA,NA,"Yes",1.453,28,FALSE,21,61.1661560134,0,"American English","VSH_Exp2","2016_Mar_22_1751",NA
"Recordings/tapu.wav","no","t","p","a","yes","u","tapu","Test","alveolar","NewWordTestStimuli",NA,NA,NA,NA,0,5,5,29,NA,NA,NA,NA,"Yes",1.787,28,FALSE,21,61.1661560134,0,"American English","VSH_Exp2","2016_Mar_22_1751",NA
"Recordings/bipu.wav","yes","b","p","i","yes","u","bipu","Controls","bilabial","StopControls",NA,NA,NA,NA,0,6,6,34,NA,NA,NA,NA,"No",1.437,28,FALSE,21,61.1661560134,0,"American English","VSH_Exp2","2016_Mar_22_1751",NA
"Recordings/vavu.wav","yes","v","v","a","no","u","vavu","Test","bilabial","NewWordTestStimuli",NA,NA,NA,NA,0,7,7,28,NA,NA,NA,NA,"Yes",1.136,28,FALSE,21,61.1661560134,0,"American English","VSH_Exp2","2016_Mar_22_1751",NA
"Recordings/zubu.wav","yes","z","b","u","no","u","zubu","Controls","alveolar","VoicingControls",NA,NA,NA,NA,0,8,8,49,NA,NA,NA,NA,"Yes",2.371,28,FALSE,21,61.1661560134,0,"American English","VSH_Exp2","2016_Mar_22_1751",NA
"Recordings/zufu.wav","yes","z","f","u","no","u","zufu","Controls","alveolar","StopControls",NA,NA,NA,NA,0,9,9,39,NA,NA,NA,NA,"Yes",1.387,28,FALSE,21,61.1661560134,0,"American English","VSH_Exp2","2016_Mar_22_1751",NA
"Recordings/tazi.wav","no","t","z","a","yes","i","tazi","Controls","alveolar","NoPatternControls",NA,NA,NA,NA,0,10,10,55,NA,NA,NA,NA,"Yes",0.92,28,FALSE,21,61.1661560134,0,"American English","VSH_Exp2","2016_Mar_22_1751",NA
"Recordings/tivi.wav","no","t","v","i","yes","i","tivi","Controls","alveolar","NoPatternControls",NA,NA,NA,NA,0,11,11,51,NA,NA,NA,NA,"No",1.504,28,FALSE,21,61.1661560134,0,"American English","VSH_Exp2","2016_Mar_22_1751",NA
"Recordings/sifi.wav","no","s","f","i","no","i","sifi","Test","alveolar","NewConsTestStimuli",NA,NA,NA,NA,0,12,12,18,NA,NA,NA,NA,"No",1.47,28,FALSE,21,61.1661560134,0,"American English","VSH_Exp2","2016_Mar_22_1751",NA
"Recordings/tabu.wav","no","t","b","a","yes","u","tabu","Controls","alveolar","StopControls",NA,NA,NA,NA,0,13,13,32,NA,NA,NA,NA,"No",3.756,28,FALSE,21,61.1661560134,0,"American English","VSH_Exp2","2016_Mar_22_1751",NA
"Recordings/dubu.wav","yes","d","b","u","yes","u","dubu","Test","alveolar","NewWordTestStimuli",NA,NA,NA,NA,0,14,14,20,NA,NA,NA,NA,"No",1.487,28,FALSE,21,61.1661560134,0,"American English","VSH_Exp2","2016_Mar_22_1751",NA
"Recordings/busa.wav","yes","b","s","u","yes","a","busa","Controls","bilabial","NoPatternControls",NA,NA,NA,NA,0,15,15,56,NA,NA,NA,NA,"No",1.12,28,FALSE,21,61.1661560134,0,"American English","VSH_Exp2","2016_Mar_22_1751",NA
"Recordings/tibi.wav","no","t","b","i","yes","i","tibi","Controls","alveolar","StopControls",NA,NA,NA,NA,0,16,16,35,NA,NA,NA,NA,"Yes",1.002,28,FALSE,21,61.1661560134,0,"American English","VSH_Exp2","2016_Mar_22_1751",NA
"Recordings/divu.wav","yes","d","v","i","yes","u","divu","Controls","alveolar","VoicingControls",NA,NA,NA,NA,0,17,17,40,NA,NA,NA,NA,"Yes",1.572,28,FALSE,21,61.1661560134,0,"American English","VSH_Exp2","2016_Mar_22_1751",NA
"Recordings/tuvu.wav","no","t","v","u","yes","u","tuvu","Controls","alveolar","NoPatternControls",NA,NA,NA,NA,0,18,18,52,NA,NA,NA,NA,"No",1.553,28,FALSE,21,61.1661560134,0,"American English","VSH_Exp2","2016_Mar_22_1751",NA
"Recordings/bitu.wav","yes","b","t","i","yes","u","bitu","Controls","bilabial","StopControls",NA,NA,NA,NA,0,19,19,36,NA,NA,NA,NA,"Yes",0.703,28,FALSE,21,61.1661560134,0,"American English","VSH_Exp2","2016_Mar_22_1751",NA
"Recordings/pudi.wav","no","p","d","u","yes","i","pudi","Controls","bilabial","StopControls",NA,NA,NA,NA,0,20,20,37,NA,NA,NA,NA,"Yes",0.871,28,FALSE,21,61.1661560134,0,"American English","VSH_Exp2","2016_Mar_22_1751",NA
"Recordings/safi.wav","no","s","f","a","no","i","safi","Test","alveolar","NewConsTestStimuli",NA,NA,NA,NA,0,21,21,11,NA,NA,NA,NA,"Yes",0.769,28,FALSE,21,61.1661560134,0,"American English","VSH_Exp2","2016_Mar_22_1751",NA
"Recordings/dipu.wav","yes","d","p","i","yes","u","dipu","Controls","alveolar","StopControls",NA,NA,NA,NA,0,22,22,30,NA,NA,NA,NA,"Yes",0.854,28,FALSE,21,61.1661560134,0,"American English","VSH_Exp2","2016_Mar_22_1751",NA
"Recordings/sasu.wav","no","s","s","a","no","u","sasu","Test","alveolar","NewWordTestStimuli",NA,NA,NA,NA,0,23,23,25,NA,NA,NA,NA,"No",1.536,28,FALSE,21,61.1661560134,0,"American English","VSH_Exp2","2016_Mar_22_1751",NA
"Recordings/vapu.wav","yes","v","p","a","no","u","vapu","Controls","bilabial","NoPatternControls",NA,NA,NA,NA,0,24,24,53,NA,NA,NA,NA,"Yes",0.719,28,FALSE,21,61.1661560134,0,"American English","VSH_Exp2","2016_Mar_22_1751",NA
"Recordings/bivu.wav","yes","b","v","i","yes","u","bivu","Controls","bilabial","VoicingControls",NA,NA,NA,NA,0,25,25,44,NA,NA,NA,NA,"No",0.921,28,FALSE,21,61.1661560134,0,"American English","VSH_Exp2","2016_Mar_22_1751",NA
"Recordings/difu.wav","yes","d","f","i","yes","u","difu","Controls","alveolar","NoPatternControls",NA,NA,NA,NA,0,26,26,50,NA,NA,NA,NA,"No",1.853,28,FALSE,21,61.1661560134,0,"American English","VSH_Exp2","2016_Mar_22_1751",NA
"Recordings/tita.wav","no","t","t","i","yes","a","tita","Test","alveolar","NewWordTestStimuli",NA,NA,NA,NA,0,27,27,21,NA,NA,NA,NA,"Yes",1.938,28,FALSE,21,61.1661560134,0,"American English","VSH_Exp2","2016_Mar_22_1751",NA
"Recordings/pizu.wav","no","p","z","i","yes","u","pizu","Controls","bilabial","NoPatternControls",NA,NA,NA,NA,0,28,28,57,NA,NA,NA,NA,"Yes",1.019,28,FALSE,21,61.1661560134,0,"American English","VSH_Exp2","2016_Mar_22_1751",NA
"Recordings/tasu.wav","no","t","s","a","yes","u","tasu","Controls","alveolar","VoicingControls",NA,NA,NA,NA,0,29,29,41,NA,NA,NA,NA,"Yes",0.97,28,FALSE,21,61.1661560134,0,"American English","VSH_Exp2","2016_Mar_22_1751",NA
"Recordings/sufa.wav","no","s","f","u","no","a","sufa","Test","alveolar","NewConsTestStimuli",NA,NA,NA,NA,0,30,30,12,NA,NA,NA,NA,"Yes",1.42,28,FALSE,21,61.1661560134,0,"American English","VSH_Exp2","2016_Mar_22_1751",NA
"Recordings/tapi.wav","no","t","p","a","yes","i","tapi","Test","alveolar","NewWordTestStimuli",NA,NA,NA,NA,0,31,31,23,NA,NA,NA,NA,"Yes",0.953,28,FALSE,21,61.1661560134,0,"American English","VSH_Exp2","2016_Mar_22_1751",NA
"Recordings/fusa.wav","no","f","s","u","no","a","fusa","Test","bilabial","NewConsTestStimuli",NA,NA,NA,NA,0,32,32,17,NA,NA,NA,NA,"No",1.069,28,FALSE,21,61.1661560134,0,"American English","VSH_Exp2","2016_Mar_22_1751",NA
"Recordings/fasu.wav","no","f","s","a","no","u","fasu","Test","bilabial","NewConsTestStimuli",NA,NA,NA,NA,0,33,33,19,NA,NA,NA,NA,"Yes",1.804,28,FALSE,21,61.1661560134,0,"American English","VSH_Exp2","2016_Mar_22_1751",NA
"Recordings/fisu.wav","no","f","s","i","no","u","fisu","Test","bilabial","NewConsTestStimuli",NA,NA,NA,NA,0,34,34,10,NA,NA,NA,NA,"No",0.919,28,FALSE,21,61.1661560134,0,"American English","VSH_Exp2","2016_Mar_22_1751",NA
"Recordings/zuva.wav","yes","z","v","u","no","a","zuva","Test","alveolar","OldTestStimuli",NA,NA,NA,NA,0,35,35,7,NA,NA,NA,NA,"Yes",0.869,28,FALSE,21,61.1661560134,0,"American English","VSH_Exp2","2016_Mar_22_1751",NA
"Recordings/vafu.wav","yes","v","f","a","no","u","vafu","Controls","bilabial","StopControls",NA,NA,NA,NA,0,36,36,33,NA,NA,NA,NA,"Yes",1.152,28,FALSE,21,61.1661560134,0,"American English","VSH_Exp2","2016_Mar_22_1751",NA
"Recordings/pusi.wav","no","p","s","u","yes","i","pusi","Controls","bilabial","VoicingControls",NA,NA,NA,NA,0,37,37,47,NA,NA,NA,NA,"No",1.303,28,FALSE,21,61.1661560134,0,"American English","VSH_Exp2","2016_Mar_22_1751",NA
"Recordings/zifi.wav","yes","z","f","i","no","i","zifi","Controls","alveolar","StopControls",NA,NA,NA,NA,0,38,38,38,NA,NA,NA,NA,"Yes",0.736,28,FALSE,21,61.1661560134,0,"American English","VSH_Exp2","2016_Mar_22_1751",NA
"Recordings/fisa.wav","no","f","s","i","no","a","fisa","Test","bilabial","NewConsTestStimuli",NA,NA,NA,NA,0,39,39,14,NA,NA,NA,NA,"Yes",0.77,28,FALSE,21,61.1661560134,0,"American English","VSH_Exp2","2016_Mar_22_1751",NA
"Recordings/vabu.wav","yes","v","b","a","no","u","vabu","Controls","bilabial","VoicingControls",NA,NA,NA,NA,0,40,40,43,NA,NA,NA,NA,"Yes",0.719,28,FALSE,21,61.1661560134,0,"American English","VSH_Exp2","2016_Mar_22_1751",NA
"Recordings/fufi.wav","no","f","f","u","no","i","fufi","Test","bilabial","NewWordTestStimuli",NA,NA,NA,NA,0,41,41,27,NA,NA,NA,NA,"Yes",0.803,28,FALSE,21,61.1661560134,0,"American English","VSH_Exp2","2016_Mar_22_1751",NA
"Recordings/zivi.wav","yes","z","v","i","no","i","zivi","Test","alveolar","OldTestStimuli",NA,NA,NA,NA,0,42,42,6,NA,NA,NA,NA,"No",2.154,28,FALSE,21,61.1661560134,0,"American English","VSH_Exp2","2016_Mar_22_1751",NA
"Recordings/tafu.wav","no","t","f","a","yes","u","tafu","Controls","alveolar","VoicingControls",NA,NA,NA,NA,0,43,43,45,NA,NA,NA,NA,"Yes",0.636,28,FALSE,21,61.1661560134,0,"American English","VSH_Exp2","2016_Mar_22_1751",NA
"Recordings/zapu.wav","yes","z","p","a","no","u","zapu","Controls","alveolar","NoPatternControls",NA,NA,NA,NA,0,44,44,58,NA,NA,NA,NA,"Yes",0.753,28,FALSE,21,61.1661560134,0,"American English","VSH_Exp2","2016_Mar_22_1751",NA
"Recordings/zipu.wav","yes","z","p","i","no","u","zipu","Controls","alveolar","NoPatternControls",NA,NA,NA,NA,0,45,45,59,NA,NA,NA,NA,"No",1.57,28,FALSE,21,61.1661560134,0,"American English","VSH_Exp2","2016_Mar_22_1751",NA
"Recordings/viva.wav","yes","v","v","i","no","a","viva","Test","bilabial","OldTestStimuli",NA,NA,NA,NA,0,46,46,4,NA,NA,NA,NA,"Yes",0.668,28,FALSE,21,61.1661560134,0,"American English","VSH_Exp2","2016_Mar_22_1751",NA
"Recordings/bibu.wav","yes","b","b","i","yes","u","bibu","Test","bilabial","NewWordTestStimuli",NA,NA,NA,NA,0,47,47,24,NA,NA,NA,NA,"Yes",0.619,28,FALSE,21,61.1661560134,0,"American English","VSH_Exp2","2016_Mar_22_1751",NA
"Recordings/bizu.wav","yes","b","z","i","yes","u","bizu","Controls","bilabial","VoicingControls",NA,NA,NA,NA,0,48,48,46,NA,NA,NA,NA,"No",1.053,28,FALSE,21,61.1661560134,0,"American English","VSH_Exp2","2016_Mar_22_1751",NA
"Recordings/zazi.wav","yes","z","z","a","no","i","zazi","Test","alveolar","OldTestStimuli",NA,NA,NA,NA,0,49,49,9,NA,NA,NA,NA,"Yes",0.987,28,FALSE,21,61.1661560134,0,"American English","VSH_Exp2","2016_Mar_22_1751",NA
"Recordings/tupi.wav","no","t","p","u","yes","i","tupi","Test","alveolar","NewWordTestStimuli",NA,NA,NA,NA,0,50,50,22,NA,NA,NA,NA,"No",0.936,28,FALSE,21,61.1661560134,0,"American English","VSH_Exp2","2016_Mar_22_1751",NA
"Recordings/vuva.wav","yes","v","v","u","no","a","vuva","Test","bilabial","OldTestStimuli",NA,NA,NA,NA,0,51,51,8,NA,NA,NA,NA,"Yes",0.953,28,FALSE,21,61.1661560134,0,"American English","VSH_Exp2","2016_Mar_22_1751",NA
"Recordings/tata.wav","no","t","t","a","yes","a","tata","Test","alveolar","OldTestStimuli",NA,NA,NA,NA,0,52,52,0,NA,NA,NA,NA,"No",1.604,28,FALSE,21,61.1661560134,0,"American English","VSH_Exp2","2016_Mar_22_1751",NA
"Recordings/fisi.wav","no","f","s","i","no","i","fisi","Test","bilabial","NewConsTestStimuli",NA,NA,NA,NA,0,53,53,16,NA,NA,NA,NA,"No",0.819,28,FALSE,21,61.1661560134,0,"American English","VSH_Exp2","2016_Mar_22_1751",NA
"Recordings/tafa.wav","no","t","f","a","yes","a","tafa","Controls","alveolar","VoicingControls",NA,NA,NA,NA,0,54,54,42,NA,NA,NA,NA,"No",1.119,28,FALSE,21,61.1661560134,0,"American English","VSH_Exp2","2016_Mar_22_1751",NA
"Recordings/tidu.wav","no","t","d","i","yes","u","tidu","Controls","alveolar","StopControls",NA,NA,NA,NA,0,55,55,31,NA,NA,NA,NA,"Yes",0.719,28,FALSE,21,61.1661560134,0,"American English","VSH_Exp2","2016_Mar_22_1751",NA
"Recordings/bifi.wav","yes","b","f","i","yes","i","bifi","Controls","bilabial","NoPatternControls",NA,NA,NA,NA,0,56,56,54,NA,NA,NA,NA,"No",1.303,28,FALSE,21,61.1661560134,0,"American English","VSH_Exp2","2016_Mar_22_1751",NA
"Recordings/puta.wav","no","p","t","u","yes","a","puta","Test","bilabial","OldTestStimuli",NA,NA,NA,NA,0,57,57,5,NA,NA,NA,NA,"No",1.004,28,FALSE,21,61.1661560134,0,"American English","VSH_Exp2","2016_Mar_22_1751",NA
"Recordings/vivi.wav","yes","v","v","i","no","i","vivi","Test","bilabial","OldTestStimuli",NA,NA,NA,NA,0,58,58,1,NA,NA,NA,NA,"No",1.203,28,FALSE,21,61.1661560134,0,"American English","VSH_Exp2","2016_Mar_22_1751",NA
"Recordings/sufu.wav","no","s","f","u","no","u","sufu","Test","alveolar","NewConsTestStimuli",NA,NA,NA,NA,0,59,59,15,NA,NA,NA,NA,"Yes",1.054,28,FALSE,21,61.1661560134,0,"American English","VSH_Exp2","2016_Mar_22_1751",NA
