"SOUND","VOICING","SEGMENT","SEGMENT3","SEGMENT2","STOP","SEGMENT4","STIMULUS","GENERAL_TYPE","PLACE","TYPE","trials.thisRepN","trials.thisTrialN","trials.thisN","trials.thisIndex","trials_2.thisRepN","trials_2.thisTrialN","trials_2.thisN","trials_2.thisIndex","SpaceBar.keys","SpaceBar.rt","key_resp_2.keys","key_resp_2.rt","rating.response","rating.rt","participant","Gender","Age","frameRate","OtherLanguages","NativeLanguage","expName","date","X34"
NA,NA,NA,NA,NA,NA,NA,NA,NA,NA,NA,NA,NA,NA,NA,NA,NA,NA,NA,"space",7.94364905357,NA,NA,NA,NA,2,FALSE,19,59.9523731929,"chaldean, spanish, arabic","American English","VSH_Exp2","2016_Feb_23_1737",NA
"Recordings/tipa.wav","no","t","p","i","yes","a","tipa","Training","alveolar","TrainingItems",0,0,0,22,NA,NA,NA,NA,NA,NA,NA,NA,NA,NA,2,FALSE,19,59.9523731929,"chaldean, spanish, arabic","American English","VSH_Exp2","2016_Feb_23_1737",NA
"Recordings/dibi.wav","yes","d","b","i","yes","i","dibi","Training","alveolar","TrainingItems",0,1,1,89,NA,NA,NA,NA,NA,NA,NA,NA,NA,NA,2,FALSE,19,59.9523731929,"chaldean, spanish, arabic","American English","VSH_Exp2","2016_Feb_23_1737",NA
"Recordings/pita.wav","no","p","t","i","yes","a","pita","Training","bilabial","TrainingItems",0,2,2,79,NA,NA,NA,NA,NA,NA,NA,NA,NA,NA,2,FALSE,19,59.9523731929,"chaldean, spanish, arabic","American English","VSH_Exp2","2016_Feb_23_1737",NA
"Recordings/bubu.wav","yes","b","b","u","yes","u","bubu","Training","bilabial","TrainingItems",0,3,3,11,NA,NA,NA,NA,NA,NA,NA,NA,NA,NA,2,FALSE,19,59.9523731929,"chaldean, spanish, arabic","American English","VSH_Exp2","2016_Feb_23_1737",NA
"Recordings/didi.wav","yes","d","d","i","yes","i","didi","Training","alveolar","TrainingItems",0,4,4,17,NA,NA,NA,NA,NA,NA,NA,NA,NA,NA,2,FALSE,19,59.9523731929,"chaldean, spanish, arabic","American English","VSH_Exp2","2016_Feb_23_1737",NA
"Recordings/tapa.wav","no","t","p","a","yes","a","tapa","Training","alveolar","TrainingItems",0,5,5,16,NA,NA,NA,NA,NA,NA,NA,NA,NA,NA,2,FALSE,19,59.9523731929,"chaldean, spanish, arabic","American English","VSH_Exp2","2016_Feb_23_1737",NA
"Recordings/vuza.wav","yes","v","z","u","no","a","vuza","Training","bilabial","TrainingItems",0,6,6,68,NA,NA,NA,NA,NA,NA,NA,NA,NA,NA,2,FALSE,19,59.9523731929,"chaldean, spanish, arabic","American English","VSH_Exp2","2016_Feb_23_1737",NA
"Recordings/tita.wav","no","t","t","i","yes","a","tita","Training","alveolar","TrainingItems",0,7,7,26,NA,NA,NA,NA,NA,NA,NA,NA,NA,NA,2,FALSE,19,59.9523731929,"chaldean, spanish, arabic","American English","VSH_Exp2","2016_Feb_23_1737",NA
"Recordings/fifi.wav","no","f","f","i","no","i","fifi","Training","bilabial","TrainingItems",0,8,8,63,NA,NA,NA,NA,NA,NA,NA,NA,NA,NA,2,FALSE,19,59.9523731929,"chaldean, spanish, arabic","American English","VSH_Exp2","2016_Feb_23_1737",NA
"Recordings/tati.wav","no","t","t","a","yes","i","tati","Training","alveolar","TrainingItems",0,9,9,52,NA,NA,NA,NA,NA,NA,NA,NA,NA,NA,2,FALSE,19,59.9523731929,"chaldean, spanish, arabic","American English","VSH_Exp2","2016_Feb_23_1737",NA
"Recordings/fufi.wav","no","f","f","u","no","i","fufi","Training","bilabial","TrainingItems",0,10,10,88,NA,NA,NA,NA,NA,NA,NA,NA,NA,NA,2,FALSE,19,59.9523731929,"chaldean, spanish, arabic","American English","VSH_Exp2","2016_Feb_23_1737",NA
"Recordings/vazu.wav","yes","v","z","a","no","u","vazu","Training","bilabial","TrainingItems",0,11,11,66,NA,NA,NA,NA,NA,NA,NA,NA,NA,NA,2,FALSE,19,59.9523731929,"chaldean, spanish, arabic","American English","VSH_Exp2","2016_Feb_23_1737",NA
"Recordings/dibu.wav","yes","d","b","i","yes","u","dibu","Training","alveolar","TrainingItems",0,12,12,9,NA,NA,NA,NA,NA,NA,NA,NA,NA,NA,2,FALSE,19,59.9523731929,"chaldean, spanish, arabic","American English","VSH_Exp2","2016_Feb_23_1737",NA
"Recordings/viza.wav","yes","v","z","i","no","a","viza","Training","bilabial","TrainingItems",0,13,13,99,NA,NA,NA,NA,NA,NA,NA,NA,NA,NA,2,FALSE,19,59.9523731929,"chaldean, spanish, arabic","American English","VSH_Exp2","2016_Feb_23_1737",NA
"Recordings/tapu.wav","no","t","p","a","yes","u","tapu","Training","alveolar","TrainingItems",0,14,14,0,NA,NA,NA,NA,NA,NA,NA,NA,NA,NA,2,FALSE,19,59.9523731929,"chaldean, spanish, arabic","American English","VSH_Exp2","2016_Feb_23_1737",NA
"Recordings/zava.wav","yes","z","v","a","no","a","zava","Training","alveolar","TrainingItems",0,15,15,64,NA,NA,NA,NA,NA,NA,NA,NA,NA,NA,2,FALSE,19,59.9523731929,"chaldean, spanish, arabic","American English","VSH_Exp2","2016_Feb_23_1737",NA
"Recordings/susi.wav","no","s","s","u","no","i","susi","Training","alveolar","TrainingItems",0,16,16,21,NA,NA,NA,NA,NA,NA,NA,NA,NA,NA,2,FALSE,19,59.9523731929,"chaldean, spanish, arabic","American English","VSH_Exp2","2016_Feb_23_1737",NA
"Recordings/budu.wav","yes","b","d","u","yes","u","budu","Training","bilabial","TrainingItems",0,17,17,76,NA,NA,NA,NA,NA,NA,NA,NA,NA,NA,2,FALSE,19,59.9523731929,"chaldean, spanish, arabic","American English","VSH_Exp2","2016_Feb_23_1737",NA
"Recordings/babi.wav","yes","b","b","a","yes","i","babi","Training","bilabial","TrainingItems",0,18,18,94,NA,NA,NA,NA,NA,NA,NA,NA,NA,NA,2,FALSE,19,59.9523731929,"chaldean, spanish, arabic","American English","VSH_Exp2","2016_Feb_23_1737",NA
"Recordings/viva.wav","yes","v","v","i","no","a","viva","Training","bilabial","TrainingItems",0,19,19,34,NA,NA,NA,NA,NA,NA,NA,NA,NA,NA,2,FALSE,19,59.9523731929,"chaldean, spanish, arabic","American English","VSH_Exp2","2016_Feb_23_1737",NA
"Recordings/duba.wav","yes","d","b","u","yes","a","duba","Training","alveolar","TrainingItems",0,20,20,54,NA,NA,NA,NA,NA,NA,NA,NA,NA,NA,2,FALSE,19,59.9523731929,"chaldean, spanish, arabic","American English","VSH_Exp2","2016_Feb_23_1737",NA
"Recordings/papi.wav","no","p","p","a","yes","i","papi","Training","bilabial","TrainingItems",0,21,21,4,NA,NA,NA,NA,NA,NA,NA,NA,NA,NA,2,FALSE,19,59.9523731929,"chaldean, spanish, arabic","American English","VSH_Exp2","2016_Feb_23_1737",NA
"Recordings/bidi.wav","yes","b","d","i","yes","i","bidi","Training","bilabial","TrainingItems",0,22,22,55,NA,NA,NA,NA,NA,NA,NA,NA,NA,NA,2,FALSE,19,59.9523731929,"chaldean, spanish, arabic","American English","VSH_Exp2","2016_Feb_23_1737",NA
"Recordings/vizi.wav","yes","v","z","i","no","i","vizi","Training","bilabial","TrainingItems",0,23,23,59,NA,NA,NA,NA,NA,NA,NA,NA,NA,NA,2,FALSE,19,59.9523731929,"chaldean, spanish, arabic","American English","VSH_Exp2","2016_Feb_23_1737",NA
"Recordings/vuvu.wav","yes","v","v","u","no","u","vuvu","Training","bilabial","TrainingItems",0,24,24,10,NA,NA,NA,NA,NA,NA,NA,NA,NA,NA,2,FALSE,19,59.9523731929,"chaldean, spanish, arabic","American English","VSH_Exp2","2016_Feb_23_1737",NA
"Recordings/vuzi.wav","yes","v","z","u","no","i","vuzi","Training","bilabial","TrainingItems",0,25,25,12,NA,NA,NA,NA,NA,NA,NA,NA,NA,NA,2,FALSE,19,59.9523731929,"chaldean, spanish, arabic","American English","VSH_Exp2","2016_Feb_23_1737",NA
"Recordings/fafu.wav","no","f","f","a","no","u","fafu","Training","bilabial","TrainingItems",0,26,26,24,NA,NA,NA,NA,NA,NA,NA,NA,NA,NA,2,FALSE,19,59.9523731929,"chaldean, spanish, arabic","American English","VSH_Exp2","2016_Feb_23_1737",NA
"Recordings/zizi.wav","yes","z","z","i","no","i","zizi","Training","alveolar","TrainingItems",0,27,27,13,NA,NA,NA,NA,NA,NA,NA,NA,NA,NA,2,FALSE,19,59.9523731929,"chaldean, spanish, arabic","American English","VSH_Exp2","2016_Feb_23_1737",NA
"Recordings/pipu.wav","no","p","p","i","yes","u","pipu","Training","bilabial","TrainingItems",0,28,28,40,NA,NA,NA,NA,NA,NA,NA,NA,NA,NA,2,FALSE,19,59.9523731929,"chaldean, spanish, arabic","American English","VSH_Exp2","2016_Feb_23_1737",NA
"Recordings/putu.wav","no","p","t","u","yes","u","putu","Training","bilabial","TrainingItems",0,29,29,77,NA,NA,NA,NA,NA,NA,NA,NA,NA,NA,2,FALSE,19,59.9523731929,"chaldean, spanish, arabic","American English","VSH_Exp2","2016_Feb_23_1737",NA
"Recordings/vivu.wav","yes","v","v","i","no","u","vivu","Training","bilabial","TrainingItems",0,30,30,45,NA,NA,NA,NA,NA,NA,NA,NA,NA,NA,2,FALSE,19,59.9523731929,"chaldean, spanish, arabic","American English","VSH_Exp2","2016_Feb_23_1737",NA
"Recordings/tipi.wav","no","t","p","i","yes","i","tipi","Training","alveolar","TrainingItems",0,31,31,92,NA,NA,NA,NA,NA,NA,NA,NA,NA,NA,2,FALSE,19,59.9523731929,"chaldean, spanish, arabic","American English","VSH_Exp2","2016_Feb_23_1737",NA
"Recordings/vuva.wav","yes","v","v","u","no","a","vuva","Training","bilabial","TrainingItems",0,32,32,39,NA,NA,NA,NA,NA,NA,NA,NA,NA,NA,2,FALSE,19,59.9523731929,"chaldean, spanish, arabic","American English","VSH_Exp2","2016_Feb_23_1737",NA
"Recordings/bibi.wav","yes","b","b","i","yes","i","bibi","Training","bilabial","TrainingItems",0,33,33,7,NA,NA,NA,NA,NA,NA,NA,NA,NA,NA,2,FALSE,19,59.9523731929,"chaldean, spanish, arabic","American English","VSH_Exp2","2016_Feb_23_1737",NA
"Recordings/titi.wav","no","t","t","i","yes","i","titi","Training","alveolar","TrainingItems",0,34,34,61,NA,NA,NA,NA,NA,NA,NA,NA,NA,NA,2,FALSE,19,59.9523731929,"chaldean, spanish, arabic","American English","VSH_Exp2","2016_Feb_23_1737",NA
"Recordings/dabu.wav","yes","d","b","a","yes","u","dabu","Training","alveolar","TrainingItems",0,35,35,56,NA,NA,NA,NA,NA,NA,NA,NA,NA,NA,2,FALSE,19,59.9523731929,"chaldean, spanish, arabic","American English","VSH_Exp2","2016_Feb_23_1737",NA
"Recordings/zazi.wav","yes","z","z","a","no","i","zazi","Training","alveolar","TrainingItems",0,36,36,23,NA,NA,NA,NA,NA,NA,NA,NA,NA,NA,2,FALSE,19,59.9523731929,"chaldean, spanish, arabic","American English","VSH_Exp2","2016_Feb_23_1737",NA
"Recordings/pata.wav","no","p","t","a","yes","a","pata","Training","bilabial","TrainingItems",0,37,37,46,NA,NA,NA,NA,NA,NA,NA,NA,NA,NA,2,FALSE,19,59.9523731929,"chaldean, spanish, arabic","American English","VSH_Exp2","2016_Feb_23_1737",NA
"Recordings/papa.wav","no","p","p","a","yes","a","papa","Training","bilabial","TrainingItems",0,38,38,27,NA,NA,NA,NA,NA,NA,NA,NA,NA,NA,2,FALSE,19,59.9523731929,"chaldean, spanish, arabic","American English","VSH_Exp2","2016_Feb_23_1737",NA
"Recordings/puti.wav","no","p","t","u","yes","i","puti","Training","bilabial","TrainingItems",0,39,39,60,NA,NA,NA,NA,NA,NA,NA,NA,NA,NA,2,FALSE,19,59.9523731929,"chaldean, spanish, arabic","American English","VSH_Exp2","2016_Feb_23_1737",NA
"Recordings/bida.wav","yes","b","d","i","yes","a","bida","Training","bilabial","TrainingItems",0,40,40,67,NA,NA,NA,NA,NA,NA,NA,NA,NA,NA,2,FALSE,19,59.9523731929,"chaldean, spanish, arabic","American English","VSH_Exp2","2016_Feb_23_1737",NA
"Recordings/fifa.wav","no","f","f","i","no","a","fifa","Training","bilabial","TrainingItems",0,41,41,71,NA,NA,NA,NA,NA,NA,NA,NA,NA,NA,2,FALSE,19,59.9523731929,"chaldean, spanish, arabic","American English","VSH_Exp2","2016_Feb_23_1737",NA
"Recordings/patu.wav","no","p","t","a","yes","u","patu","Training","bilabial","TrainingItems",0,42,42,91,NA,NA,NA,NA,NA,NA,NA,NA,NA,NA,2,FALSE,19,59.9523731929,"chaldean, spanish, arabic","American English","VSH_Exp2","2016_Feb_23_1737",NA
"Recordings/bubi.wav","yes","b","b","u","yes","i","bubi","Training","bilabial","TrainingItems",0,43,43,6,NA,NA,NA,NA,NA,NA,NA,NA,NA,NA,2,FALSE,19,59.9523731929,"chaldean, spanish, arabic","American English","VSH_Exp2","2016_Feb_23_1737",NA
"Recordings/zizu.wav","yes","z","z","i","no","u","zizu","Training","alveolar","TrainingItems",0,44,44,97,NA,NA,NA,NA,NA,NA,NA,NA,NA,NA,2,FALSE,19,59.9523731929,"chaldean, spanish, arabic","American English","VSH_Exp2","2016_Feb_23_1737",NA
"Recordings/fafa.wav","no","f","f","a","no","a","fafa","Training","bilabial","TrainingItems",0,45,45,75,NA,NA,NA,NA,NA,NA,NA,NA,NA,NA,2,FALSE,19,59.9523731929,"chaldean, spanish, arabic","American English","VSH_Exp2","2016_Feb_23_1737",NA
"Recordings/pupa.wav","no","p","p","u","yes","a","pupa","Training","bilabial","TrainingItems",0,46,46,28,NA,NA,NA,NA,NA,NA,NA,NA,NA,NA,2,FALSE,19,59.9523731929,"chaldean, spanish, arabic","American English","VSH_Exp2","2016_Feb_23_1737",NA
"Recordings/badi.wav","yes","b","d","a","yes","i","badi","Training","bilabial","TrainingItems",0,47,47,93,NA,NA,NA,NA,NA,NA,NA,NA,NA,NA,2,FALSE,19,59.9523731929,"chaldean, spanish, arabic","American English","VSH_Exp2","2016_Feb_23_1737",NA
"Recordings/sasa.wav","no","s","s","a","no","a","sasa","Training","alveolar","TrainingItems",0,48,48,37,NA,NA,NA,NA,NA,NA,NA,NA,NA,NA,2,FALSE,19,59.9523731929,"chaldean, spanish, arabic","American English","VSH_Exp2","2016_Feb_23_1737",NA
"Recordings/tipu.wav","no","t","p","i","yes","u","tipu","Training","alveolar","TrainingItems",0,49,49,31,NA,NA,NA,NA,NA,NA,NA,NA,NA,NA,2,FALSE,19,59.9523731929,"chaldean, spanish, arabic","American English","VSH_Exp2","2016_Feb_23_1737",NA
"Recordings/baba.wav","yes","b","b","a","yes","a","baba","Training","bilabial","TrainingItems",0,50,50,65,NA,NA,NA,NA,NA,NA,NA,NA,NA,NA,2,FALSE,19,59.9523731929,"chaldean, spanish, arabic","American English","VSH_Exp2","2016_Feb_23_1737",NA
"Recordings/dudu.wav","yes","d","d","u","yes","u","dudu","Training","alveolar","TrainingItems",0,51,51,72,NA,NA,NA,NA,NA,NA,NA,NA,NA,NA,2,FALSE,19,59.9523731929,"chaldean, spanish, arabic","American English","VSH_Exp2","2016_Feb_23_1737",NA
"Recordings/titu.wav","no","t","t","i","yes","u","titu","Training","alveolar","TrainingItems",0,52,52,2,NA,NA,NA,NA,NA,NA,NA,NA,NA,NA,2,FALSE,19,59.9523731929,"chaldean, spanish, arabic","American English","VSH_Exp2","2016_Feb_23_1737",NA
"Recordings/vuzu.wav","yes","v","z","u","no","u","vuzu","Training","bilabial","TrainingItems",0,53,53,30,NA,NA,NA,NA,NA,NA,NA,NA,NA,NA,2,FALSE,19,59.9523731929,"chaldean, spanish, arabic","American English","VSH_Exp2","2016_Feb_23_1737",NA
"Recordings/dida.wav","yes","d","d","i","yes","a","dida","Training","alveolar","TrainingItems",0,54,54,62,NA,NA,NA,NA,NA,NA,NA,NA,NA,NA,2,FALSE,19,59.9523731929,"chaldean, spanish, arabic","American English","VSH_Exp2","2016_Feb_23_1737",NA
"Recordings/didu.wav","yes","d","d","i","yes","u","didu","Training","alveolar","TrainingItems",0,55,55,58,NA,NA,NA,NA,NA,NA,NA,NA,NA,NA,2,FALSE,19,59.9523731929,"chaldean, spanish, arabic","American English","VSH_Exp2","2016_Feb_23_1737",NA
"Recordings/bibu.wav","yes","b","b","i","yes","u","bibu","Training","bilabial","TrainingItems",0,56,56,96,NA,NA,NA,NA,NA,NA,NA,NA,NA,NA,2,FALSE,19,59.9523731929,"chaldean, spanish, arabic","American English","VSH_Exp2","2016_Feb_23_1737",NA
"Recordings/fafi.wav","no","f","f","a","no","i","fafi","Training","bilabial","TrainingItems",0,57,57,85,NA,NA,NA,NA,NA,NA,NA,NA,NA,NA,2,FALSE,19,59.9523731929,"chaldean, spanish, arabic","American English","VSH_Exp2","2016_Feb_23_1737",NA
"Recordings/pipa.wav","no","p","p","i","yes","a","pipa","Training","bilabial","TrainingItems",0,58,58,83,NA,NA,NA,NA,NA,NA,NA,NA,NA,NA,2,FALSE,19,59.9523731929,"chaldean, spanish, arabic","American English","VSH_Exp2","2016_Feb_23_1737",NA
"Recordings/pupu.wav","no","p","p","u","yes","u","pupu","Training","bilabial","TrainingItems",0,59,59,8,NA,NA,NA,NA,NA,NA,NA,NA,NA,NA,2,FALSE,19,59.9523731929,"chaldean, spanish, arabic","American English","VSH_Exp2","2016_Feb_23_1737",NA
"Recordings/ziva.wav","yes","z","v","i","no","a","ziva","Training","alveolar","TrainingItems",0,60,60,51,NA,NA,NA,NA,NA,NA,NA,NA,NA,NA,2,FALSE,19,59.9523731929,"chaldean, spanish, arabic","American English","VSH_Exp2","2016_Feb_23_1737",NA
"Recordings/badu.wav","yes","b","d","a","yes","u","badu","Training","bilabial","TrainingItems",0,61,61,57,NA,NA,NA,NA,NA,NA,NA,NA,NA,NA,2,FALSE,19,59.9523731929,"chaldean, spanish, arabic","American English","VSH_Exp2","2016_Feb_23_1737",NA
"Recordings/bada.wav","yes","b","d","a","yes","a","bada","Training","bilabial","TrainingItems",0,62,62,53,NA,NA,NA,NA,NA,NA,NA,NA,NA,NA,2,FALSE,19,59.9523731929,"chaldean, spanish, arabic","American English","VSH_Exp2","2016_Feb_23_1737",NA
"Recordings/tupu.wav","no","t","p","u","yes","u","tupu","Training","alveolar","TrainingItems",0,63,63,49,NA,NA,NA,NA,NA,NA,NA,NA,NA,NA,2,FALSE,19,59.9523731929,"chaldean, spanish, arabic","American English","VSH_Exp2","2016_Feb_23_1737",NA
"Recordings/dubi.wav","yes","d","b","u","yes","i","dubi","Training","alveolar","TrainingItems",0,64,64,3,NA,NA,NA,NA,NA,NA,NA,NA,NA,NA,2,FALSE,19,59.9523731929,"chaldean, spanish, arabic","American English","VSH_Exp2","2016_Feb_23_1737",NA
"Recordings/pupi.wav","no","p","p","u","yes","i","pupi","Training","bilabial","TrainingItems",0,65,65,19,NA,NA,NA,NA,NA,NA,NA,NA,NA,NA,2,FALSE,19,59.9523731929,"chaldean, spanish, arabic","American English","VSH_Exp2","2016_Feb_23_1737",NA
"Recordings/susa.wav","no","s","s","u","no","a","susa","Training","alveolar","TrainingItems",0,66,66,20,NA,NA,NA,NA,NA,NA,NA,NA,NA,NA,2,FALSE,19,59.9523731929,"chaldean, spanish, arabic","American English","VSH_Exp2","2016_Feb_23_1737",NA
"Recordings/babu.wav","yes","b","b","a","yes","u","babu","Training","bilabial","TrainingItems",0,67,67,84,NA,NA,NA,NA,NA,NA,NA,NA,NA,NA,2,FALSE,19,59.9523731929,"chaldean, spanish, arabic","American English","VSH_Exp2","2016_Feb_23_1737",NA
"Recordings/zuza.wav","yes","z","z","u","no","a","zuza","Training","alveolar","TrainingItems",0,68,68,14,NA,NA,NA,NA,NA,NA,NA,NA,NA,NA,2,FALSE,19,59.9523731929,"chaldean, spanish, arabic","American English","VSH_Exp2","2016_Feb_23_1737",NA
"Recordings/dubu.wav","yes","d","b","u","yes","u","dubu","Training","alveolar","TrainingItems",0,69,69,43,NA,NA,NA,NA,NA,NA,NA,NA,NA,NA,2,FALSE,19,59.9523731929,"chaldean, spanish, arabic","American English","VSH_Exp2","2016_Feb_23_1737",NA
"Recordings/tapi.wav","no","t","p","a","yes","i","tapi","Training","alveolar","TrainingItems",0,70,70,69,NA,NA,NA,NA,NA,NA,NA,NA,NA,NA,2,FALSE,19,59.9523731929,"chaldean, spanish, arabic","American English","VSH_Exp2","2016_Feb_23_1737",NA
"Recordings/tutu.wav","no","t","t","u","yes","u","tutu","Training","alveolar","TrainingItems",0,71,71,87,NA,NA,NA,NA,NA,NA,NA,NA,NA,NA,2,FALSE,19,59.9523731929,"chaldean, spanish, arabic","American English","VSH_Exp2","2016_Feb_23_1737",NA
"Recordings/vivi.wav","yes","v","v","i","no","i","vivi","Training","bilabial","TrainingItems",0,72,72,95,NA,NA,NA,NA,NA,NA,NA,NA,NA,NA,2,FALSE,19,59.9523731929,"chaldean, spanish, arabic","American English","VSH_Exp2","2016_Feb_23_1737",NA
"Recordings/daba.wav","yes","d","b","a","yes","a","daba","Training","alveolar","TrainingItems",0,73,73,81,NA,NA,NA,NA,NA,NA,NA,NA,NA,NA,2,FALSE,19,59.9523731929,"chaldean, spanish, arabic","American English","VSH_Exp2","2016_Feb_23_1737",NA
"Recordings/buba.wav","yes","b","b","u","yes","a","buba","Training","bilabial","TrainingItems",0,74,74,48,NA,NA,NA,NA,NA,NA,NA,NA,NA,NA,2,FALSE,19,59.9523731929,"chaldean, spanish, arabic","American English","VSH_Exp2","2016_Feb_23_1737",NA
"Recordings/vava.wav","yes","v","v","a","no","a","vava","Training","bilabial","TrainingItems",0,75,75,80,NA,NA,NA,NA,NA,NA,NA,NA,NA,NA,2,FALSE,19,59.9523731929,"chaldean, spanish, arabic","American English","VSH_Exp2","2016_Feb_23_1737",NA
"Recordings/fufa.wav","no","f","f","u","no","a","fufa","Training","bilabial","TrainingItems",0,76,76,78,NA,NA,NA,NA,NA,NA,NA,NA,NA,NA,2,FALSE,19,59.9523731929,"chaldean, spanish, arabic","American English","VSH_Exp2","2016_Feb_23_1737",NA
"Recordings/pati.wav","no","p","t","a","yes","i","pati","Training","bilabial","TrainingItems",0,77,77,32,NA,NA,NA,NA,NA,NA,NA,NA,NA,NA,2,FALSE,19,59.9523731929,"chaldean, spanish, arabic","American English","VSH_Exp2","2016_Feb_23_1737",NA
"Recordings/pitu.wav","no","p","t","i","yes","u","pitu","Training","bilabial","TrainingItems",0,78,78,73,NA,NA,NA,NA,NA,NA,NA,NA,NA,NA,2,FALSE,19,59.9523731929,"chaldean, spanish, arabic","American English","VSH_Exp2","2016_Feb_23_1737",NA
"Recordings/vavi.wav","yes","v","v","a","no","i","vavi","Training","bilabial","TrainingItems",0,79,79,38,NA,NA,NA,NA,NA,NA,NA,NA,NA,NA,2,FALSE,19,59.9523731929,"chaldean, spanish, arabic","American English","VSH_Exp2","2016_Feb_23_1737",NA
"Recordings/tuti.wav","no","t","t","u","yes","i","tuti","Training","alveolar","TrainingItems",0,80,80,44,NA,NA,NA,NA,NA,NA,NA,NA,NA,NA,2,FALSE,19,59.9523731929,"chaldean, spanish, arabic","American English","VSH_Exp2","2016_Feb_23_1737",NA
"Recordings/zuvu.wav","yes","z","v","u","no","u","zuvu","Training","alveolar","TrainingItems",0,81,81,41,NA,NA,NA,NA,NA,NA,NA,NA,NA,NA,2,FALSE,19,59.9523731929,"chaldean, spanish, arabic","American English","VSH_Exp2","2016_Feb_23_1737",NA
"Recordings/sisi.wav","no","s","s","i","no","i","sisi","Training","alveolar","TrainingItems",0,82,82,18,NA,NA,NA,NA,NA,NA,NA,NA,NA,NA,2,FALSE,19,59.9523731929,"chaldean, spanish, arabic","American English","VSH_Exp2","2016_Feb_23_1737",NA
"Recordings/fufu.wav","no","f","f","u","no","u","fufu","Training","bilabial","TrainingItems",0,83,83,47,NA,NA,NA,NA,NA,NA,NA,NA,NA,NA,2,FALSE,19,59.9523731929,"chaldean, spanish, arabic","American English","VSH_Exp2","2016_Feb_23_1737",NA
"Recordings/vazi.wav","yes","v","z","a","no","i","vazi","Training","bilabial","TrainingItems",0,84,84,90,NA,NA,NA,NA,NA,NA,NA,NA,NA,NA,2,FALSE,19,59.9523731929,"chaldean, spanish, arabic","American English","VSH_Exp2","2016_Feb_23_1737",NA
"Recordings/vuvi.wav","yes","v","v","u","no","i","vuvi","Training","bilabial","TrainingItems",0,85,85,35,NA,NA,NA,NA,NA,NA,NA,NA,NA,NA,2,FALSE,19,59.9523731929,"chaldean, spanish, arabic","American English","VSH_Exp2","2016_Feb_23_1737",NA
"Recordings/tupi.wav","no","t","p","u","yes","i","tupi","Training","alveolar","TrainingItems",0,86,86,42,NA,NA,NA,NA,NA,NA,NA,NA,NA,NA,2,FALSE,19,59.9523731929,"chaldean, spanish, arabic","American English","VSH_Exp2","2016_Feb_23_1737",NA
"Recordings/zuzi.wav","yes","z","z","u","no","i","zuzi","Training","alveolar","TrainingItems",0,87,87,29,NA,NA,NA,NA,NA,NA,NA,NA,NA,NA,2,FALSE,19,59.9523731929,"chaldean, spanish, arabic","American English","VSH_Exp2","2016_Feb_23_1737",NA
"Recordings/dadi.wav","yes","d","d","a","yes","i","dadi","Training","alveolar","TrainingItems",0,88,88,1,NA,NA,NA,NA,NA,NA,NA,NA,NA,NA,2,FALSE,19,59.9523731929,"chaldean, spanish, arabic","American English","VSH_Exp2","2016_Feb_23_1737",NA
"Recordings/puta.wav","no","p","t","u","yes","a","puta","Training","bilabial","TrainingItems",0,89,89,98,NA,NA,NA,NA,NA,NA,NA,NA,NA,NA,2,FALSE,19,59.9523731929,"chaldean, spanish, arabic","American English","VSH_Exp2","2016_Feb_23_1737",NA
"Recordings/dadu.wav","yes","d","d","a","yes","u","dadu","Training","alveolar","TrainingItems",0,90,90,25,NA,NA,NA,NA,NA,NA,NA,NA,NA,NA,2,FALSE,19,59.9523731929,"chaldean, spanish, arabic","American English","VSH_Exp2","2016_Feb_23_1737",NA
"Recordings/tatu.wav","no","t","t","a","yes","u","tatu","Training","alveolar","TrainingItems",0,91,91,70,NA,NA,NA,NA,NA,NA,NA,NA,NA,NA,2,FALSE,19,59.9523731929,"chaldean, spanish, arabic","American English","VSH_Exp2","2016_Feb_23_1737",NA
"Recordings/sisu.wav","no","s","s","i","no","u","sisu","Training","alveolar","TrainingItems",0,92,92,15,NA,NA,NA,NA,NA,NA,NA,NA,NA,NA,2,FALSE,19,59.9523731929,"chaldean, spanish, arabic","American English","VSH_Exp2","2016_Feb_23_1737",NA
"Recordings/dada.wav","yes","d","d","a","yes","a","dada","Training","alveolar","TrainingItems",0,93,93,50,NA,NA,NA,NA,NA,NA,NA,NA,NA,NA,2,FALSE,19,59.9523731929,"chaldean, spanish, arabic","American English","VSH_Exp2","2016_Feb_23_1737",NA
"Recordings/buda.wav","yes","b","d","u","yes","a","buda","Training","bilabial","TrainingItems",0,94,94,36,NA,NA,NA,NA,NA,NA,NA,NA,NA,NA,2,FALSE,19,59.9523731929,"chaldean, spanish, arabic","American English","VSH_Exp2","2016_Feb_23_1737",NA
"Recordings/piti.wav","no","p","t","i","yes","i","piti","Training","bilabial","TrainingItems",0,95,95,86,NA,NA,NA,NA,NA,NA,NA,NA,NA,NA,2,FALSE,19,59.9523731929,"chaldean, spanish, arabic","American English","VSH_Exp2","2016_Feb_23_1737",NA
"Recordings/vizu.wav","yes","v","z","i","no","u","vizu","Training","bilabial","TrainingItems",0,96,96,33,NA,NA,NA,NA,NA,NA,NA,NA,NA,NA,2,FALSE,19,59.9523731929,"chaldean, spanish, arabic","American English","VSH_Exp2","2016_Feb_23_1737",NA
"Recordings/dabi.wav","yes","d","b","a","yes","i","dabi","Training","alveolar","TrainingItems",0,97,97,82,NA,NA,NA,NA,NA,NA,NA,NA,NA,NA,2,FALSE,19,59.9523731929,"chaldean, spanish, arabic","American English","VSH_Exp2","2016_Feb_23_1737",NA
"Recordings/vavu.wav","yes","v","v","a","no","u","vavu","Training","bilabial","TrainingItems",0,98,98,74,NA,NA,NA,NA,NA,NA,NA,NA,NA,NA,2,FALSE,19,59.9523731929,"chaldean, spanish, arabic","American English","VSH_Exp2","2016_Feb_23_1737",NA
"Recordings/tuta.wav","no","t","t","u","yes","a","tuta","Training","alveolar","TrainingItems",0,99,99,5,NA,NA,NA,NA,NA,NA,NA,NA,NA,NA,2,FALSE,19,59.9523731929,"chaldean, spanish, arabic","American English","VSH_Exp2","2016_Feb_23_1737",NA
"Recordings/pipa.wav","no","p","p","i","yes","a","pipa","Training","bilabial","TrainingItems",1,0,100,83,NA,NA,NA,NA,NA,NA,NA,NA,NA,NA,2,FALSE,19,59.9523731929,"chaldean, spanish, arabic","American English","VSH_Exp2","2016_Feb_23_1737",NA
"Recordings/dabu.wav","yes","d","b","a","yes","u","dabu","Training","alveolar","TrainingItems",1,1,101,56,NA,NA,NA,NA,NA,NA,NA,NA,NA,NA,2,FALSE,19,59.9523731929,"chaldean, spanish, arabic","American English","VSH_Exp2","2016_Feb_23_1737",NA
"Recordings/fufi.wav","no","f","f","u","no","i","fufi","Training","bilabial","TrainingItems",1,2,102,88,NA,NA,NA,NA,NA,NA,NA,NA,NA,NA,2,FALSE,19,59.9523731929,"chaldean, spanish, arabic","American English","VSH_Exp2","2016_Feb_23_1737",NA
"Recordings/papi.wav","no","p","p","a","yes","i","papi","Training","bilabial","TrainingItems",1,3,103,4,NA,NA,NA,NA,NA,NA,NA,NA,NA,NA,2,FALSE,19,59.9523731929,"chaldean, spanish, arabic","American English","VSH_Exp2","2016_Feb_23_1737",NA
"Recordings/dada.wav","yes","d","d","a","yes","a","dada","Training","alveolar","TrainingItems",1,4,104,50,NA,NA,NA,NA,NA,NA,NA,NA,NA,NA,2,FALSE,19,59.9523731929,"chaldean, spanish, arabic","American English","VSH_Exp2","2016_Feb_23_1737",NA
"Recordings/tapa.wav","no","t","p","a","yes","a","tapa","Training","alveolar","TrainingItems",1,5,105,16,NA,NA,NA,NA,NA,NA,NA,NA,NA,NA,2,FALSE,19,59.9523731929,"chaldean, spanish, arabic","American English","VSH_Exp2","2016_Feb_23_1737",NA
"Recordings/babu.wav","yes","b","b","a","yes","u","babu","Training","bilabial","TrainingItems",1,6,106,84,NA,NA,NA,NA,NA,NA,NA,NA,NA,NA,2,FALSE,19,59.9523731929,"chaldean, spanish, arabic","American English","VSH_Exp2","2016_Feb_23_1737",NA
"Recordings/vavi.wav","yes","v","v","a","no","i","vavi","Training","bilabial","TrainingItems",1,7,107,38,NA,NA,NA,NA,NA,NA,NA,NA,NA,NA,2,FALSE,19,59.9523731929,"chaldean, spanish, arabic","American English","VSH_Exp2","2016_Feb_23_1737",NA
"Recordings/buba.wav","yes","b","b","u","yes","a","buba","Training","bilabial","TrainingItems",1,8,108,48,NA,NA,NA,NA,NA,NA,NA,NA,NA,NA,2,FALSE,19,59.9523731929,"chaldean, spanish, arabic","American English","VSH_Exp2","2016_Feb_23_1737",NA
"Recordings/dabi.wav","yes","d","b","a","yes","i","dabi","Training","alveolar","TrainingItems",1,9,109,82,NA,NA,NA,NA,NA,NA,NA,NA,NA,NA,2,FALSE,19,59.9523731929,"chaldean, spanish, arabic","American English","VSH_Exp2","2016_Feb_23_1737",NA
"Recordings/pita.wav","no","p","t","i","yes","a","pita","Training","bilabial","TrainingItems",1,10,110,79,NA,NA,NA,NA,NA,NA,NA,NA,NA,NA,2,FALSE,19,59.9523731929,"chaldean, spanish, arabic","American English","VSH_Exp2","2016_Feb_23_1737",NA
"Recordings/dibi.wav","yes","d","b","i","yes","i","dibi","Training","alveolar","TrainingItems",1,11,111,89,NA,NA,NA,NA,NA,NA,NA,NA,NA,NA,2,FALSE,19,59.9523731929,"chaldean, spanish, arabic","American English","VSH_Exp2","2016_Feb_23_1737",NA
"Recordings/daba.wav","yes","d","b","a","yes","a","daba","Training","alveolar","TrainingItems",1,12,112,81,NA,NA,NA,NA,NA,NA,NA,NA,NA,NA,2,FALSE,19,59.9523731929,"chaldean, spanish, arabic","American English","VSH_Exp2","2016_Feb_23_1737",NA
"Recordings/didu.wav","yes","d","d","i","yes","u","didu","Training","alveolar","TrainingItems",1,13,113,58,NA,NA,NA,NA,NA,NA,NA,NA,NA,NA,2,FALSE,19,59.9523731929,"chaldean, spanish, arabic","American English","VSH_Exp2","2016_Feb_23_1737",NA
"Recordings/patu.wav","no","p","t","a","yes","u","patu","Training","bilabial","TrainingItems",1,14,114,91,NA,NA,NA,NA,NA,NA,NA,NA,NA,NA,2,FALSE,19,59.9523731929,"chaldean, spanish, arabic","American English","VSH_Exp2","2016_Feb_23_1737",NA
"Recordings/fufa.wav","no","f","f","u","no","a","fufa","Training","bilabial","TrainingItems",1,15,115,78,NA,NA,NA,NA,NA,NA,NA,NA,NA,NA,2,FALSE,19,59.9523731929,"chaldean, spanish, arabic","American English","VSH_Exp2","2016_Feb_23_1737",NA
"Recordings/dadi.wav","yes","d","d","a","yes","i","dadi","Training","alveolar","TrainingItems",1,16,116,1,NA,NA,NA,NA,NA,NA,NA,NA,NA,NA,2,FALSE,19,59.9523731929,"chaldean, spanish, arabic","American English","VSH_Exp2","2016_Feb_23_1737",NA
"Recordings/bibi.wav","yes","b","b","i","yes","i","bibi","Training","bilabial","TrainingItems",1,17,117,7,NA,NA,NA,NA,NA,NA,NA,NA,NA,NA,2,FALSE,19,59.9523731929,"chaldean, spanish, arabic","American English","VSH_Exp2","2016_Feb_23_1737",NA
"Recordings/badi.wav","yes","b","d","a","yes","i","badi","Training","bilabial","TrainingItems",1,18,118,93,NA,NA,NA,NA,NA,NA,NA,NA,NA,NA,2,FALSE,19,59.9523731929,"chaldean, spanish, arabic","American English","VSH_Exp2","2016_Feb_23_1737",NA
"Recordings/vizi.wav","yes","v","z","i","no","i","vizi","Training","bilabial","TrainingItems",1,19,119,59,NA,NA,NA,NA,NA,NA,NA,NA,NA,NA,2,FALSE,19,59.9523731929,"chaldean, spanish, arabic","American English","VSH_Exp2","2016_Feb_23_1737",NA
"Recordings/putu.wav","no","p","t","u","yes","u","putu","Training","bilabial","TrainingItems",1,20,120,77,NA,NA,NA,NA,NA,NA,NA,NA,NA,NA,2,FALSE,19,59.9523731929,"chaldean, spanish, arabic","American English","VSH_Exp2","2016_Feb_23_1737",NA
"Recordings/bida.wav","yes","b","d","i","yes","a","bida","Training","bilabial","TrainingItems",1,21,121,67,NA,NA,NA,NA,NA,NA,NA,NA,NA,NA,2,FALSE,19,59.9523731929,"chaldean, spanish, arabic","American English","VSH_Exp2","2016_Feb_23_1737",NA
"Recordings/bada.wav","yes","b","d","a","yes","a","bada","Training","bilabial","TrainingItems",1,22,122,53,NA,NA,NA,NA,NA,NA,NA,NA,NA,NA,2,FALSE,19,59.9523731929,"chaldean, spanish, arabic","American English","VSH_Exp2","2016_Feb_23_1737",NA
"Recordings/piti.wav","no","p","t","i","yes","i","piti","Training","bilabial","TrainingItems",1,23,123,86,NA,NA,NA,NA,NA,NA,NA,NA,NA,NA,2,FALSE,19,59.9523731929,"chaldean, spanish, arabic","American English","VSH_Exp2","2016_Feb_23_1737",NA
"Recordings/bidi.wav","yes","b","d","i","yes","i","bidi","Training","bilabial","TrainingItems",1,24,124,55,NA,NA,NA,NA,NA,NA,NA,NA,NA,NA,2,FALSE,19,59.9523731929,"chaldean, spanish, arabic","American English","VSH_Exp2","2016_Feb_23_1737",NA
"Recordings/vavu.wav","yes","v","v","a","no","u","vavu","Training","bilabial","TrainingItems",1,25,125,74,NA,NA,NA,NA,NA,NA,NA,NA,NA,NA,2,FALSE,19,59.9523731929,"chaldean, spanish, arabic","American English","VSH_Exp2","2016_Feb_23_1737",NA
"Recordings/bibu.wav","yes","b","b","i","yes","u","bibu","Training","bilabial","TrainingItems",1,26,126,96,NA,NA,NA,NA,NA,NA,NA,NA,NA,NA,2,FALSE,19,59.9523731929,"chaldean, spanish, arabic","American English","VSH_Exp2","2016_Feb_23_1737",NA
"Recordings/sisu.wav","no","s","s","i","no","u","sisu","Training","alveolar","TrainingItems",1,27,127,15,NA,NA,NA,NA,NA,NA,NA,NA,NA,NA,2,FALSE,19,59.9523731929,"chaldean, spanish, arabic","American English","VSH_Exp2","2016_Feb_23_1737",NA
"Recordings/tupu.wav","no","t","p","u","yes","u","tupu","Training","alveolar","TrainingItems",1,28,128,49,NA,NA,NA,NA,NA,NA,NA,NA,NA,NA,2,FALSE,19,59.9523731929,"chaldean, spanish, arabic","American English","VSH_Exp2","2016_Feb_23_1737",NA
"Recordings/dibu.wav","yes","d","b","i","yes","u","dibu","Training","alveolar","TrainingItems",1,29,129,9,NA,NA,NA,NA,NA,NA,NA,NA,NA,NA,2,FALSE,19,59.9523731929,"chaldean, spanish, arabic","American English","VSH_Exp2","2016_Feb_23_1737",NA
"Recordings/ziva.wav","yes","z","v","i","no","a","ziva","Training","alveolar","TrainingItems",1,30,130,51,NA,NA,NA,NA,NA,NA,NA,NA,NA,NA,2,FALSE,19,59.9523731929,"chaldean, spanish, arabic","American English","VSH_Exp2","2016_Feb_23_1737",NA
"Recordings/papa.wav","no","p","p","a","yes","a","papa","Training","bilabial","TrainingItems",1,31,131,27,NA,NA,NA,NA,NA,NA,NA,NA,NA,NA,2,FALSE,19,59.9523731929,"chaldean, spanish, arabic","American English","VSH_Exp2","2016_Feb_23_1737",NA
"Recordings/vuzi.wav","yes","v","z","u","no","i","vuzi","Training","bilabial","TrainingItems",1,32,132,12,NA,NA,NA,NA,NA,NA,NA,NA,NA,NA,2,FALSE,19,59.9523731929,"chaldean, spanish, arabic","American English","VSH_Exp2","2016_Feb_23_1737",NA
"Recordings/fafu.wav","no","f","f","a","no","u","fafu","Training","bilabial","TrainingItems",1,33,133,24,NA,NA,NA,NA,NA,NA,NA,NA,NA,NA,2,FALSE,19,59.9523731929,"chaldean, spanish, arabic","American English","VSH_Exp2","2016_Feb_23_1737",NA
"Recordings/bubi.wav","yes","b","b","u","yes","i","bubi","Training","bilabial","TrainingItems",1,34,134,6,NA,NA,NA,NA,NA,NA,NA,NA,NA,NA,2,FALSE,19,59.9523731929,"chaldean, spanish, arabic","American English","VSH_Exp2","2016_Feb_23_1737",NA
"Recordings/tuta.wav","no","t","t","u","yes","a","tuta","Training","alveolar","TrainingItems",1,35,135,5,NA,NA,NA,NA,NA,NA,NA,NA,NA,NA,2,FALSE,19,59.9523731929,"chaldean, spanish, arabic","American English","VSH_Exp2","2016_Feb_23_1737",NA
"Recordings/susi.wav","no","s","s","u","no","i","susi","Training","alveolar","TrainingItems",1,36,136,21,NA,NA,NA,NA,NA,NA,NA,NA,NA,NA,2,FALSE,19,59.9523731929,"chaldean, spanish, arabic","American English","VSH_Exp2","2016_Feb_23_1737",NA
"Recordings/fafa.wav","no","f","f","a","no","a","fafa","Training","bilabial","TrainingItems",1,37,137,75,NA,NA,NA,NA,NA,NA,NA,NA,NA,NA,2,FALSE,19,59.9523731929,"chaldean, spanish, arabic","American English","VSH_Exp2","2016_Feb_23_1737",NA
"Recordings/dida.wav","yes","d","d","i","yes","a","dida","Training","alveolar","TrainingItems",1,38,138,62,NA,NA,NA,NA,NA,NA,NA,NA,NA,NA,2,FALSE,19,59.9523731929,"chaldean, spanish, arabic","American English","VSH_Exp2","2016_Feb_23_1737",NA
"Recordings/vuva.wav","yes","v","v","u","no","a","vuva","Training","bilabial","TrainingItems",1,39,139,39,NA,NA,NA,NA,NA,NA,NA,NA,NA,NA,2,FALSE,19,59.9523731929,"chaldean, spanish, arabic","American English","VSH_Exp2","2016_Feb_23_1737",NA
"Recordings/pata.wav","no","p","t","a","yes","a","pata","Training","bilabial","TrainingItems",1,40,140,46,NA,NA,NA,NA,NA,NA,NA,NA,NA,NA,2,FALSE,19,59.9523731929,"chaldean, spanish, arabic","American English","VSH_Exp2","2016_Feb_23_1737",NA
"Recordings/didi.wav","yes","d","d","i","yes","i","didi","Training","alveolar","TrainingItems",1,41,141,17,NA,NA,NA,NA,NA,NA,NA,NA,NA,NA,2,FALSE,19,59.9523731929,"chaldean, spanish, arabic","American English","VSH_Exp2","2016_Feb_23_1737",NA
"Recordings/vava.wav","yes","v","v","a","no","a","vava","Training","bilabial","TrainingItems",1,42,142,80,NA,NA,NA,NA,NA,NA,NA,NA,NA,NA,2,FALSE,19,59.9523731929,"chaldean, spanish, arabic","American English","VSH_Exp2","2016_Feb_23_1737",NA
"Recordings/fifi.wav","no","f","f","i","no","i","fifi","Training","bilabial","TrainingItems",1,43,143,63,NA,NA,NA,NA,NA,NA,NA,NA,NA,NA,2,FALSE,19,59.9523731929,"chaldean, spanish, arabic","American English","VSH_Exp2","2016_Feb_23_1737",NA
"Recordings/zuvu.wav","yes","z","v","u","no","u","zuvu","Training","alveolar","TrainingItems",1,44,144,41,NA,NA,NA,NA,NA,NA,NA,NA,NA,NA,2,FALSE,19,59.9523731929,"chaldean, spanish, arabic","American English","VSH_Exp2","2016_Feb_23_1737",NA
"Recordings/bubu.wav","yes","b","b","u","yes","u","bubu","Training","bilabial","TrainingItems",1,45,145,11,NA,NA,NA,NA,NA,NA,NA,NA,NA,NA,2,FALSE,19,59.9523731929,"chaldean, spanish, arabic","American English","VSH_Exp2","2016_Feb_23_1737",NA
"Recordings/vazu.wav","yes","v","z","a","no","u","vazu","Training","bilabial","TrainingItems",1,46,146,66,NA,NA,NA,NA,NA,NA,NA,NA,NA,NA,2,FALSE,19,59.9523731929,"chaldean, spanish, arabic","American English","VSH_Exp2","2016_Feb_23_1737",NA
"Recordings/tatu.wav","no","t","t","a","yes","u","tatu","Training","alveolar","TrainingItems",1,47,147,70,NA,NA,NA,NA,NA,NA,NA,NA,NA,NA,2,FALSE,19,59.9523731929,"chaldean, spanish, arabic","American English","VSH_Exp2","2016_Feb_23_1737",NA
"Recordings/pitu.wav","no","p","t","i","yes","u","pitu","Training","bilabial","TrainingItems",1,48,148,73,NA,NA,NA,NA,NA,NA,NA,NA,NA,NA,2,FALSE,19,59.9523731929,"chaldean, spanish, arabic","American English","VSH_Exp2","2016_Feb_23_1737",NA
"Recordings/tita.wav","no","t","t","i","yes","a","tita","Training","alveolar","TrainingItems",1,49,149,26,NA,NA,NA,NA,NA,NA,NA,NA,NA,NA,2,FALSE,19,59.9523731929,"chaldean, spanish, arabic","American English","VSH_Exp2","2016_Feb_23_1737",NA
"Recordings/vivu.wav","yes","v","v","i","no","u","vivu","Training","bilabial","TrainingItems",1,50,150,45,NA,NA,NA,NA,NA,NA,NA,NA,NA,NA,2,FALSE,19,59.9523731929,"chaldean, spanish, arabic","American English","VSH_Exp2","2016_Feb_23_1737",NA
"Recordings/zazi.wav","yes","z","z","a","no","i","zazi","Training","alveolar","TrainingItems",1,51,151,23,NA,NA,NA,NA,NA,NA,NA,NA,NA,NA,2,FALSE,19,59.9523731929,"chaldean, spanish, arabic","American English","VSH_Exp2","2016_Feb_23_1737",NA
"Recordings/zava.wav","yes","z","v","a","no","a","zava","Training","alveolar","TrainingItems",1,52,152,64,NA,NA,NA,NA,NA,NA,NA,NA,NA,NA,2,FALSE,19,59.9523731929,"chaldean, spanish, arabic","American English","VSH_Exp2","2016_Feb_23_1737",NA
"Recordings/tipi.wav","no","t","p","i","yes","i","tipi","Training","alveolar","TrainingItems",1,53,153,92,NA,NA,NA,NA,NA,NA,NA,NA,NA,NA,2,FALSE,19,59.9523731929,"chaldean, spanish, arabic","American English","VSH_Exp2","2016_Feb_23_1737",NA
"Recordings/puti.wav","no","p","t","u","yes","i","puti","Training","bilabial","TrainingItems",1,54,154,60,NA,NA,NA,NA,NA,NA,NA,NA,NA,NA,2,FALSE,19,59.9523731929,"chaldean, spanish, arabic","American English","VSH_Exp2","2016_Feb_23_1737",NA
"Recordings/badu.wav","yes","b","d","a","yes","u","badu","Training","bilabial","TrainingItems",1,55,155,57,NA,NA,NA,NA,NA,NA,NA,NA,NA,NA,2,FALSE,19,59.9523731929,"chaldean, spanish, arabic","American English","VSH_Exp2","2016_Feb_23_1737",NA
"Recordings/buda.wav","yes","b","d","u","yes","a","buda","Training","bilabial","TrainingItems",1,56,156,36,NA,NA,NA,NA,NA,NA,NA,NA,NA,NA,2,FALSE,19,59.9523731929,"chaldean, spanish, arabic","American English","VSH_Exp2","2016_Feb_23_1737",NA
"Recordings/titi.wav","no","t","t","i","yes","i","titi","Training","alveolar","TrainingItems",1,57,157,61,NA,NA,NA,NA,NA,NA,NA,NA,NA,NA,2,FALSE,19,59.9523731929,"chaldean, spanish, arabic","American English","VSH_Exp2","2016_Feb_23_1737",NA
"Recordings/pupi.wav","no","p","p","u","yes","i","pupi","Training","bilabial","TrainingItems",1,58,158,19,NA,NA,NA,NA,NA,NA,NA,NA,NA,NA,2,FALSE,19,59.9523731929,"chaldean, spanish, arabic","American English","VSH_Exp2","2016_Feb_23_1737",NA
"Recordings/vuzu.wav","yes","v","z","u","no","u","vuzu","Training","bilabial","TrainingItems",1,59,159,30,NA,NA,NA,NA,NA,NA,NA,NA,NA,NA,2,FALSE,19,59.9523731929,"chaldean, spanish, arabic","American English","VSH_Exp2","2016_Feb_23_1737",NA
"Recordings/pati.wav","no","p","t","a","yes","i","pati","Training","bilabial","TrainingItems",1,60,160,32,NA,NA,NA,NA,NA,NA,NA,NA,NA,NA,2,FALSE,19,59.9523731929,"chaldean, spanish, arabic","American English","VSH_Exp2","2016_Feb_23_1737",NA
"Recordings/vuza.wav","yes","v","z","u","no","a","vuza","Training","bilabial","TrainingItems",1,61,161,68,NA,NA,NA,NA,NA,NA,NA,NA,NA,NA,2,FALSE,19,59.9523731929,"chaldean, spanish, arabic","American English","VSH_Exp2","2016_Feb_23_1737",NA
"Recordings/duba.wav","yes","d","b","u","yes","a","duba","Training","alveolar","TrainingItems",1,62,162,54,NA,NA,NA,NA,NA,NA,NA,NA,NA,NA,2,FALSE,19,59.9523731929,"chaldean, spanish, arabic","American English","VSH_Exp2","2016_Feb_23_1737",NA
"Recordings/sisi.wav","no","s","s","i","no","i","sisi","Training","alveolar","TrainingItems",1,63,163,18,NA,NA,NA,NA,NA,NA,NA,NA,NA,NA,2,FALSE,19,59.9523731929,"chaldean, spanish, arabic","American English","VSH_Exp2","2016_Feb_23_1737",NA
"Recordings/tutu.wav","no","t","t","u","yes","u","tutu","Training","alveolar","TrainingItems",1,64,164,87,NA,NA,NA,NA,NA,NA,NA,NA,NA,NA,2,FALSE,19,59.9523731929,"chaldean, spanish, arabic","American English","VSH_Exp2","2016_Feb_23_1737",NA
"Recordings/tipa.wav","no","t","p","i","yes","a","tipa","Training","alveolar","TrainingItems",1,65,165,22,NA,NA,NA,NA,NA,NA,NA,NA,NA,NA,2,FALSE,19,59.9523731929,"chaldean, spanish, arabic","American English","VSH_Exp2","2016_Feb_23_1737",NA
"Recordings/tati.wav","no","t","t","a","yes","i","tati","Training","alveolar","TrainingItems",1,66,166,52,NA,NA,NA,NA,NA,NA,NA,NA,NA,NA,2,FALSE,19,59.9523731929,"chaldean, spanish, arabic","American English","VSH_Exp2","2016_Feb_23_1737",NA
"Recordings/vuvi.wav","yes","v","v","u","no","i","vuvi","Training","bilabial","TrainingItems",1,67,167,35,NA,NA,NA,NA,NA,NA,NA,NA,NA,NA,2,FALSE,19,59.9523731929,"chaldean, spanish, arabic","American English","VSH_Exp2","2016_Feb_23_1737",NA
"Recordings/baba.wav","yes","b","b","a","yes","a","baba","Training","bilabial","TrainingItems",1,68,168,65,NA,NA,NA,NA,NA,NA,NA,NA,NA,NA,2,FALSE,19,59.9523731929,"chaldean, spanish, arabic","American English","VSH_Exp2","2016_Feb_23_1737",NA
"Recordings/fafi.wav","no","f","f","a","no","i","fafi","Training","bilabial","TrainingItems",1,69,169,85,NA,NA,NA,NA,NA,NA,NA,NA,NA,NA,2,FALSE,19,59.9523731929,"chaldean, spanish, arabic","American English","VSH_Exp2","2016_Feb_23_1737",NA
"Recordings/tapi.wav","no","t","p","a","yes","i","tapi","Training","alveolar","TrainingItems",1,70,170,69,NA,NA,NA,NA,NA,NA,NA,NA,NA,NA,2,FALSE,19,59.9523731929,"chaldean, spanish, arabic","American English","VSH_Exp2","2016_Feb_23_1737",NA
"Recordings/vazi.wav","yes","v","z","a","no","i","vazi","Training","bilabial","TrainingItems",1,71,171,90,NA,NA,NA,NA,NA,NA,NA,NA,NA,NA,2,FALSE,19,59.9523731929,"chaldean, spanish, arabic","American English","VSH_Exp2","2016_Feb_23_1737",NA
"Recordings/zizi.wav","yes","z","z","i","no","i","zizi","Training","alveolar","TrainingItems",1,72,172,13,NA,NA,NA,NA,NA,NA,NA,NA,NA,NA,2,FALSE,19,59.9523731929,"chaldean, spanish, arabic","American English","VSH_Exp2","2016_Feb_23_1737",NA
"Recordings/puta.wav","no","p","t","u","yes","a","puta","Training","bilabial","TrainingItems",1,73,173,98,NA,NA,NA,NA,NA,NA,NA,NA,NA,NA,2,FALSE,19,59.9523731929,"chaldean, spanish, arabic","American English","VSH_Exp2","2016_Feb_23_1737",NA
"Recordings/tipu.wav","no","t","p","i","yes","u","tipu","Training","alveolar","TrainingItems",1,74,174,31,NA,NA,NA,NA,NA,NA,NA,NA,NA,NA,2,FALSE,19,59.9523731929,"chaldean, spanish, arabic","American English","VSH_Exp2","2016_Feb_23_1737",NA
"Recordings/susa.wav","no","s","s","u","no","a","susa","Training","alveolar","TrainingItems",1,75,175,20,NA,NA,NA,NA,NA,NA,NA,NA,NA,NA,2,FALSE,19,59.9523731929,"chaldean, spanish, arabic","American English","VSH_Exp2","2016_Feb_23_1737",NA
"Recordings/fufu.wav","no","f","f","u","no","u","fufu","Training","bilabial","TrainingItems",1,76,176,47,NA,NA,NA,NA,NA,NA,NA,NA,NA,NA,2,FALSE,19,59.9523731929,"chaldean, spanish, arabic","American English","VSH_Exp2","2016_Feb_23_1737",NA
"Recordings/babi.wav","yes","b","b","a","yes","i","babi","Training","bilabial","TrainingItems",1,77,177,94,NA,NA,NA,NA,NA,NA,NA,NA,NA,NA,2,FALSE,19,59.9523731929,"chaldean, spanish, arabic","American English","VSH_Exp2","2016_Feb_23_1737",NA
"Recordings/pupa.wav","no","p","p","u","yes","a","pupa","Training","bilabial","TrainingItems",1,78,178,28,NA,NA,NA,NA,NA,NA,NA,NA,NA,NA,2,FALSE,19,59.9523731929,"chaldean, spanish, arabic","American English","VSH_Exp2","2016_Feb_23_1737",NA
"Recordings/dubu.wav","yes","d","b","u","yes","u","dubu","Training","alveolar","TrainingItems",1,79,179,43,NA,NA,NA,NA,NA,NA,NA,NA,NA,NA,2,FALSE,19,59.9523731929,"chaldean, spanish, arabic","American English","VSH_Exp2","2016_Feb_23_1737",NA
"Recordings/viza.wav","yes","v","z","i","no","a","viza","Training","bilabial","TrainingItems",1,80,180,99,NA,NA,NA,NA,NA,NA,NA,NA,NA,NA,2,FALSE,19,59.9523731929,"chaldean, spanish, arabic","American English","VSH_Exp2","2016_Feb_23_1737",NA
"Recordings/vuvu.wav","yes","v","v","u","no","u","vuvu","Training","bilabial","TrainingItems",1,81,181,10,NA,NA,NA,NA,NA,NA,NA,NA,NA,NA,2,FALSE,19,59.9523731929,"chaldean, spanish, arabic","American English","VSH_Exp2","2016_Feb_23_1737",NA
"Recordings/tupi.wav","no","t","p","u","yes","i","tupi","Training","alveolar","TrainingItems",1,82,182,42,NA,NA,NA,NA,NA,NA,NA,NA,NA,NA,2,FALSE,19,59.9523731929,"chaldean, spanish, arabic","American English","VSH_Exp2","2016_Feb_23_1737",NA
"Recordings/vivi.wav","yes","v","v","i","no","i","vivi","Training","bilabial","TrainingItems",1,83,183,95,NA,NA,NA,NA,NA,NA,NA,NA,NA,NA,2,FALSE,19,59.9523731929,"chaldean, spanish, arabic","American English","VSH_Exp2","2016_Feb_23_1737",NA
"Recordings/zuza.wav","yes","z","z","u","no","a","zuza","Training","alveolar","TrainingItems",1,84,184,14,NA,NA,NA,NA,NA,NA,NA,NA,NA,NA,2,FALSE,19,59.9523731929,"chaldean, spanish, arabic","American English","VSH_Exp2","2016_Feb_23_1737",NA
"Recordings/dadu.wav","yes","d","d","a","yes","u","dadu","Training","alveolar","TrainingItems",1,85,185,25,NA,NA,NA,NA,NA,NA,NA,NA,NA,NA,2,FALSE,19,59.9523731929,"chaldean, spanish, arabic","American English","VSH_Exp2","2016_Feb_23_1737",NA
"Recordings/fifa.wav","no","f","f","i","no","a","fifa","Training","bilabial","TrainingItems",1,86,186,71,NA,NA,NA,NA,NA,NA,NA,NA,NA,NA,2,FALSE,19,59.9523731929,"chaldean, spanish, arabic","American English","VSH_Exp2","2016_Feb_23_1737",NA
"Recordings/dudu.wav","yes","d","d","u","yes","u","dudu","Training","alveolar","TrainingItems",1,87,187,72,NA,NA,NA,NA,NA,NA,NA,NA,NA,NA,2,FALSE,19,59.9523731929,"chaldean, spanish, arabic","American English","VSH_Exp2","2016_Feb_23_1737",NA
"Recordings/viva.wav","yes","v","v","i","no","a","viva","Training","bilabial","TrainingItems",1,88,188,34,NA,NA,NA,NA,NA,NA,NA,NA,NA,NA,2,FALSE,19,59.9523731929,"chaldean, spanish, arabic","American English","VSH_Exp2","2016_Feb_23_1737",NA
"Recordings/tuti.wav","no","t","t","u","yes","i","tuti","Training","alveolar","TrainingItems",1,89,189,44,NA,NA,NA,NA,NA,NA,NA,NA,NA,NA,2,FALSE,19,59.9523731929,"chaldean, spanish, arabic","American English","VSH_Exp2","2016_Feb_23_1737",NA
"Recordings/titu.wav","no","t","t","i","yes","u","titu","Training","alveolar","TrainingItems",1,90,190,2,NA,NA,NA,NA,NA,NA,NA,NA,NA,NA,2,FALSE,19,59.9523731929,"chaldean, spanish, arabic","American English","VSH_Exp2","2016_Feb_23_1737",NA
"Recordings/zizu.wav","yes","z","z","i","no","u","zizu","Training","alveolar","TrainingItems",1,91,191,97,NA,NA,NA,NA,NA,NA,NA,NA,NA,NA,2,FALSE,19,59.9523731929,"chaldean, spanish, arabic","American English","VSH_Exp2","2016_Feb_23_1737",NA
"Recordings/pipu.wav","no","p","p","i","yes","u","pipu","Training","bilabial","TrainingItems",1,92,192,40,NA,NA,NA,NA,NA,NA,NA,NA,NA,NA,2,FALSE,19,59.9523731929,"chaldean, spanish, arabic","American English","VSH_Exp2","2016_Feb_23_1737",NA
"Recordings/tapu.wav","no","t","p","a","yes","u","tapu","Training","alveolar","TrainingItems",1,93,193,0,NA,NA,NA,NA,NA,NA,NA,NA,NA,NA,2,FALSE,19,59.9523731929,"chaldean, spanish, arabic","American English","VSH_Exp2","2016_Feb_23_1737",NA
"Recordings/sasa.wav","no","s","s","a","no","a","sasa","Training","alveolar","TrainingItems",1,94,194,37,NA,NA,NA,NA,NA,NA,NA,NA,NA,NA,2,FALSE,19,59.9523731929,"chaldean, spanish, arabic","American English","VSH_Exp2","2016_Feb_23_1737",NA
"Recordings/pupu.wav","no","p","p","u","yes","u","pupu","Training","bilabial","TrainingItems",1,95,195,8,NA,NA,NA,NA,NA,NA,NA,NA,NA,NA,2,FALSE,19,59.9523731929,"chaldean, spanish, arabic","American English","VSH_Exp2","2016_Feb_23_1737",NA
"Recordings/vizu.wav","yes","v","z","i","no","u","vizu","Training","bilabial","TrainingItems",1,96,196,33,NA,NA,NA,NA,NA,NA,NA,NA,NA,NA,2,FALSE,19,59.9523731929,"chaldean, spanish, arabic","American English","VSH_Exp2","2016_Feb_23_1737",NA
"Recordings/zuzi.wav","yes","z","z","u","no","i","zuzi","Training","alveolar","TrainingItems",1,97,197,29,NA,NA,NA,NA,NA,NA,NA,NA,NA,NA,2,FALSE,19,59.9523731929,"chaldean, spanish, arabic","American English","VSH_Exp2","2016_Feb_23_1737",NA
"Recordings/dubi.wav","yes","d","b","u","yes","i","dubi","Training","alveolar","TrainingItems",1,98,198,3,NA,NA,NA,NA,NA,NA,NA,NA,NA,NA,2,FALSE,19,59.9523731929,"chaldean, spanish, arabic","American English","VSH_Exp2","2016_Feb_23_1737",NA
"Recordings/budu.wav","yes","b","d","u","yes","u","budu","Training","bilabial","TrainingItems",1,99,199,76,NA,NA,NA,NA,NA,NA,NA,NA,NA,NA,2,FALSE,19,59.9523731929,"chaldean, spanish, arabic","American English","VSH_Exp2","2016_Feb_23_1737",NA
NA,NA,NA,NA,NA,NA,NA,NA,NA,NA,NA,NA,NA,NA,NA,NA,NA,NA,NA,NA,NA,"space",9.32842898369,NA,NA,2,FALSE,19,59.9523731929,"chaldean, spanish, arabic","American English","VSH_Exp2","2016_Feb_23_1737",NA
"Recordings/pipi.wav","no","p","p","i","yes","i","pipi","Test","bilabial","NewWordTestStimuli",NA,NA,NA,NA,0,0,0,24,NA,NA,NA,NA,"Yes",3.156,2,FALSE,19,59.9523731929,"chaldean, spanish, arabic","American English","VSH_Exp2","2016_Feb_23_1737",NA
"Recordings/zazi.wav","yes","z","z","a","no","i","zazi","Test","alveolar","OldTestStimuli",NA,NA,NA,NA,0,1,1,9,NA,NA,NA,NA,"Yes",1.505,2,FALSE,19,59.9523731929,"chaldean, spanish, arabic","American English","VSH_Exp2","2016_Feb_23_1737",NA
"Recordings/datu.wav","yes","d","t","a","yes","u","datu","Controls","alveolar","StopControls",NA,NA,NA,NA,0,2,2,39,NA,NA,NA,NA,"Yes",1.754,2,FALSE,19,59.9523731929,"chaldean, spanish, arabic","American English","VSH_Exp2","2016_Feb_23_1737",NA
"Recordings/fava.wav","no","f","v","a","no","a","fava","Controls","bilabial","StopControls",NA,NA,NA,NA,0,3,3,33,NA,NA,NA,NA,"No",3.924,2,FALSE,19,59.9523731929,"chaldean, spanish, arabic","American English","VSH_Exp2","2016_Feb_23_1737",NA
"Recordings/piba.wav","no","p","b","i","yes","a","piba","Controls","bilabial","StopControls",NA,NA,NA,NA,0,4,4,34,NA,NA,NA,NA,"No",1.554,2,FALSE,19,59.9523731929,"chaldean, spanish, arabic","American English","VSH_Exp2","2016_Feb_23_1737",NA
"Recordings/puzu.wav","no","p","z","u","yes","u","puzu","Controls","bilabial","NoPatternControls",NA,NA,NA,NA,0,5,5,54,NA,NA,NA,NA,"No",1.504,2,FALSE,19,59.9523731929,"chaldean, spanish, arabic","American English","VSH_Exp2","2016_Feb_23_1737",NA
"Recordings/bavu.wav","yes","b","v","a","yes","u","bavu","Controls","bilabial","VoicingControls",NA,NA,NA,NA,0,6,6,47,NA,NA,NA,NA,"No",1.338,2,FALSE,19,59.9523731929,"chaldean, spanish, arabic","American English","VSH_Exp2","2016_Feb_23_1737",NA
"Recordings/pabu.wav","no","p","b","a","yes","u","pabu","Controls","bilabial","StopControls",NA,NA,NA,NA,0,7,7,38,NA,NA,NA,NA,"No",1.27,2,FALSE,19,59.9523731929,"chaldean, spanish, arabic","American English","VSH_Exp2","2016_Feb_23_1737",NA
"Recordings/fusa.wav","no","f","s","u","no","a","fusa","Test","bilabial","NewConsTestStimuli",NA,NA,NA,NA,0,8,8,14,NA,NA,NA,NA,"No",1.303,2,FALSE,19,59.9523731929,"chaldean, spanish, arabic","American English","VSH_Exp2","2016_Feb_23_1737",NA
"Recordings/diba.wav","yes","d","b","i","yes","a","diba","Test","alveolar","NewWordTestStimuli",NA,NA,NA,NA,0,9,9,21,NA,NA,NA,NA,"Yes",1.855,2,FALSE,19,59.9523731929,"chaldean, spanish, arabic","American English","VSH_Exp2","2016_Feb_23_1737",NA
"Recordings/bubi.wav","yes","b","b","u","yes","i","bubi","Test","bilabial","OldTestStimuli",NA,NA,NA,NA,0,10,10,6,NA,NA,NA,NA,"Yes",0.902,2,FALSE,19,59.9523731929,"chaldean, spanish, arabic","American English","VSH_Exp2","2016_Feb_23_1737",NA
"Recordings/fasa.wav","no","f","s","a","no","a","fasa","Test","bilabial","NewConsTestStimuli",NA,NA,NA,NA,0,11,11,11,NA,NA,NA,NA,"Yes",0.953,2,FALSE,19,59.9523731929,"chaldean, spanish, arabic","American English","VSH_Exp2","2016_Feb_23_1737",NA
"Recordings/bufi.wav","yes","b","f","u","yes","i","bufi","Controls","bilabial","NoPatternControls",NA,NA,NA,NA,0,12,12,57,NA,NA,NA,NA,"No",2.789,2,FALSE,19,59.9523731929,"chaldean, spanish, arabic","American English","VSH_Exp2","2016_Feb_23_1737",NA
"Recordings/fisu.wav","no","f","s","i","no","u","fisu","Test","bilabial","NewConsTestStimuli",NA,NA,NA,NA,0,13,13,19,NA,NA,NA,NA,"No",1.854,2,FALSE,19,59.9523731929,"chaldean, spanish, arabic","American English","VSH_Exp2","2016_Feb_23_1737",NA
"Recordings/biza.wav","yes","b","z","i","yes","a","biza","Controls","bilabial","VoicingControls",NA,NA,NA,NA,0,14,14,46,NA,NA,NA,NA,"No",1.119,2,FALSE,19,59.9523731929,"chaldean, spanish, arabic","American English","VSH_Exp2","2016_Feb_23_1737",NA
"Recordings/dida.wav","yes","d","d","i","yes","a","dida","Test","alveolar","OldTestStimuli",NA,NA,NA,NA,0,15,15,5,NA,NA,NA,NA,"Yes",1.304,2,FALSE,19,59.9523731929,"chaldean, spanish, arabic","American English","VSH_Exp2","2016_Feb_23_1737",NA
"Recordings/sipu.wav","no","s","p","i","no","u","sipu","Controls","alveolar","VoicingControls",NA,NA,NA,NA,0,16,16,42,NA,NA,NA,NA,"No",1.036,2,FALSE,19,59.9523731929,"chaldean, spanish, arabic","American English","VSH_Exp2","2016_Feb_23_1737",NA
"Recordings/tupa.wav","no","t","p","u","yes","a","tupa","Test","alveolar","NewWordTestStimuli",NA,NA,NA,NA,0,17,17,25,NA,NA,NA,NA,"Yes",1.42,2,FALSE,19,59.9523731929,"chaldean, spanish, arabic","American English","VSH_Exp2","2016_Feb_23_1737",NA
"Recordings/basu.wav","yes","b","s","a","yes","u","basu","Controls","bilabial","NoPatternControls",NA,NA,NA,NA,0,18,18,56,NA,NA,NA,NA,"Yes",0.786,2,FALSE,19,59.9523731929,"chaldean, spanish, arabic","American English","VSH_Exp2","2016_Feb_23_1737",NA
"Recordings/dasi.wav","yes","d","s","a","yes","i","dasi","Controls","alveolar","NoPatternControls",NA,NA,NA,NA,0,19,19,51,NA,NA,NA,NA,"Yes",1.62,2,FALSE,19,59.9523731929,"chaldean, spanish, arabic","American English","VSH_Exp2","2016_Feb_23_1737",NA
"Recordings/zaza.wav","yes","z","z","a","no","a","zaza","Test","alveolar","NewWordTestStimuli",NA,NA,NA,NA,0,20,20,20,NA,NA,NA,NA,"Yes",0.553,2,FALSE,19,59.9523731929,"chaldean, spanish, arabic","American English","VSH_Exp2","2016_Feb_23_1737",NA
"Recordings/dazu.wav","yes","d","z","a","yes","u","dazu","Controls","alveolar","VoicingControls",NA,NA,NA,NA,0,21,21,49,NA,NA,NA,NA,"Yes",0.737,2,FALSE,19,59.9523731929,"chaldean, spanish, arabic","American English","VSH_Exp2","2016_Feb_23_1737",NA
"Recordings/tatu.wav","no","t","t","a","yes","u","tatu","Test","alveolar","OldTestStimuli",NA,NA,NA,NA,0,22,22,0,NA,NA,NA,NA,"Yes",0.703,2,FALSE,19,59.9523731929,"chaldean, spanish, arabic","American English","VSH_Exp2","2016_Feb_23_1737",NA
"Recordings/pasi.wav","no","p","s","a","yes","i","pasi","Controls","bilabial","VoicingControls",NA,NA,NA,NA,0,23,23,48,NA,NA,NA,NA,"Yes",0.569,2,FALSE,19,59.9523731929,"chaldean, spanish, arabic","American English","VSH_Exp2","2016_Feb_23_1737",NA
"Recordings/taza.wav","no","t","z","a","yes","a","taza","Controls","alveolar","NoPatternControls",NA,NA,NA,NA,0,24,24,50,NA,NA,NA,NA,"Yes",1.47,2,FALSE,19,59.9523731929,"chaldean, spanish, arabic","American English","VSH_Exp2","2016_Feb_23_1737",NA
"Recordings/tusi.wav","no","t","s","u","yes","i","tusi","Controls","alveolar","VoicingControls",NA,NA,NA,NA,0,25,25,40,NA,NA,NA,NA,"Yes",0.953,2,FALSE,19,59.9523731929,"chaldean, spanish, arabic","American English","VSH_Exp2","2016_Feb_23_1737",NA
"Recordings/papa.wav","no","p","p","a","yes","a","papa","Test","bilabial","OldTestStimuli",NA,NA,NA,NA,0,26,26,3,NA,NA,NA,NA,"Yes",0.736,2,FALSE,19,59.9523731929,"chaldean, spanish, arabic","American English","VSH_Exp2","2016_Feb_23_1737",NA
"Recordings/sasa.wav","no","s","s","a","no","a","sasa","Test","alveolar","OldTestStimuli",NA,NA,NA,NA,0,27,27,4,NA,NA,NA,NA,"Yes",0.871,2,FALSE,19,59.9523731929,"chaldean, spanish, arabic","American English","VSH_Exp2","2016_Feb_23_1737",NA
"Recordings/biba.wav","yes","b","b","i","yes","a","biba","Test","bilabial","NewWordTestStimuli",NA,NA,NA,NA,0,28,28,27,NA,NA,NA,NA,"Yes",0.552,2,FALSE,19,59.9523731929,"chaldean, spanish, arabic","American English","VSH_Exp2","2016_Feb_23_1737",NA
"Recordings/sifa.wav","no","s","f","i","no","a","sifa","Test","alveolar","NewConsTestStimuli",NA,NA,NA,NA,0,29,29,18,NA,NA,NA,NA,"Yes",0.937,2,FALSE,19,59.9523731929,"chaldean, spanish, arabic","American English","VSH_Exp2","2016_Feb_23_1737",NA
"Recordings/piza.wav","no","p","z","i","yes","a","piza","Controls","bilabial","NoPatternControls",NA,NA,NA,NA,0,30,30,58,NA,NA,NA,NA,"Yes",0.788,2,FALSE,19,59.9523731929,"chaldean, spanish, arabic","American English","VSH_Exp2","2016_Feb_23_1737",NA
"Recordings/siba.wav","no","s","b","i","no","a","siba","Controls","alveolar","NoPatternControls",NA,NA,NA,NA,0,31,31,52,NA,NA,NA,NA,"No",1.689,2,FALSE,19,59.9523731929,"chaldean, spanish, arabic","American English","VSH_Exp2","2016_Feb_23_1737",NA
"Recordings/tabi.wav","no","t","b","a","yes","i","tabi","Controls","alveolar","StopControls",NA,NA,NA,NA,0,32,32,30,NA,NA,NA,NA,"No",0.969,2,FALSE,19,59.9523731929,"chaldean, spanish, arabic","American English","VSH_Exp2","2016_Feb_23_1737",NA
"Recordings/dadi.wav","yes","d","d","a","yes","i","dadi","Test","alveolar","OldTestStimuli",NA,NA,NA,NA,0,33,33,7,NA,NA,NA,NA,"Yes",0.971,2,FALSE,19,59.9523731929,"chaldean, spanish, arabic","American English","VSH_Exp2","2016_Feb_23_1737",NA
"Recordings/didu.wav","yes","d","d","i","yes","u","didu","Test","alveolar","OldTestStimuli",NA,NA,NA,NA,0,34,34,2,NA,NA,NA,NA,"Yes",0.687,2,FALSE,19,59.9523731929,"chaldean, spanish, arabic","American English","VSH_Exp2","2016_Feb_23_1737",NA
"Recordings/bita.wav","yes","b","t","i","yes","a","bita","Controls","bilabial","StopControls",NA,NA,NA,NA,0,35,35,36,NA,NA,NA,NA,"No",1.052,2,FALSE,19,59.9523731929,"chaldean, spanish, arabic","American English","VSH_Exp2","2016_Feb_23_1737",NA
"Recordings/fubu.wav","no","f","b","u","no","u","fubu","Controls","bilabial","NoPatternControls",NA,NA,NA,NA,0,36,36,53,NA,NA,NA,NA,"Yes",1.486,2,FALSE,19,59.9523731929,"chaldean, spanish, arabic","American English","VSH_Exp2","2016_Feb_23_1737",NA
"Recordings/duzu.wav","yes","d","z","u","yes","u","duzu","Controls","alveolar","VoicingControls",NA,NA,NA,NA,0,37,37,41,NA,NA,NA,NA,"Yes",0.771,2,FALSE,19,59.9523731929,"chaldean, spanish, arabic","American English","VSH_Exp2","2016_Feb_23_1737",NA
"Recordings/fufu.wav","no","f","f","u","no","u","fufu","Test","bilabial","OldTestStimuli",NA,NA,NA,NA,0,38,38,8,NA,NA,NA,NA,"Yes",0.735,2,FALSE,19,59.9523731929,"chaldean, spanish, arabic","American English","VSH_Exp2","2016_Feb_23_1737",NA
"Recordings/fifu.wav","no","f","f","i","no","u","fifu","Test","bilabial","NewWordTestStimuli",NA,NA,NA,NA,0,39,39,23,NA,NA,NA,NA,"Yes",0.72,2,FALSE,19,59.9523731929,"chaldean, spanish, arabic","American English","VSH_Exp2","2016_Feb_23_1737",NA
"Recordings/tata.wav","no","t","t","a","yes","a","tata","Test","alveolar","NewWordTestStimuli",NA,NA,NA,NA,0,40,40,22,NA,NA,NA,NA,"Yes",0.57,2,FALSE,19,59.9523731929,"chaldean, spanish, arabic","American English","VSH_Exp2","2016_Feb_23_1737",NA
"Recordings/dudi.wav","yes","d","d","u","yes","i","dudi","Test","alveolar","NewWordTestStimuli",NA,NA,NA,NA,0,41,41,29,NA,NA,NA,NA,"Yes",0.738,2,FALSE,19,59.9523731929,"chaldean, spanish, arabic","American English","VSH_Exp2","2016_Feb_23_1737",NA
"Recordings/tadi.wav","no","t","d","a","yes","i","tadi","Controls","alveolar","StopControls",NA,NA,NA,NA,0,42,42,35,NA,NA,NA,NA,"Yes",0.97,2,FALSE,19,59.9523731929,"chaldean, spanish, arabic","American English","VSH_Exp2","2016_Feb_23_1737",NA
"Recordings/safi.wav","no","s","f","a","no","i","safi","Test","alveolar","NewConsTestStimuli",NA,NA,NA,NA,0,43,43,17,NA,NA,NA,NA,"Yes",0.953,2,FALSE,19,59.9523731929,"chaldean, spanish, arabic","American English","VSH_Exp2","2016_Feb_23_1737",NA
"Recordings/bidu.wav","yes","b","d","i","yes","u","bidu","Test","bilabial","NewWordTestStimuli",NA,NA,NA,NA,0,44,44,26,NA,NA,NA,NA,"Yes",0.803,2,FALSE,19,59.9523731929,"chaldean, spanish, arabic","American English","VSH_Exp2","2016_Feb_23_1737",NA
"Recordings/safu.wav","no","s","f","a","no","u","safu","Test","alveolar","NewConsTestStimuli",NA,NA,NA,NA,0,45,45,10,NA,NA,NA,NA,"Yes",1.086,2,FALSE,19,59.9523731929,"chaldean, spanish, arabic","American English","VSH_Exp2","2016_Feb_23_1737",NA
"Recordings/susa.wav","no","s","s","u","no","a","susa","Test","alveolar","OldTestStimuli",NA,NA,NA,NA,0,46,46,1,NA,NA,NA,NA,"Yes",0.703,2,FALSE,19,59.9523731929,"chaldean, spanish, arabic","American English","VSH_Exp2","2016_Feb_23_1737",NA
"Recordings/fapu.wav","no","f","p","a","no","u","fapu","Controls","bilabial","VoicingControls",NA,NA,NA,NA,0,47,47,43,NA,NA,NA,NA,"No",1.238,2,FALSE,19,59.9523731929,"chaldean, spanish, arabic","American English","VSH_Exp2","2016_Feb_23_1737",NA
"Recordings/tuzu.wav","no","t","z","u","yes","u","tuzu","Controls","alveolar","NoPatternControls",NA,NA,NA,NA,0,48,48,55,NA,NA,NA,NA,"Yes",1.202,2,FALSE,19,59.9523731929,"chaldean, spanish, arabic","American English","VSH_Exp2","2016_Feb_23_1737",NA
"Recordings/susu.wav","no","s","s","u","no","u","susu","Test","alveolar","NewWordTestStimuli",NA,NA,NA,NA,0,49,49,28,NA,NA,NA,NA,"Yes",0.686,2,FALSE,19,59.9523731929,"chaldean, spanish, arabic","American English","VSH_Exp2","2016_Feb_23_1737",NA
"Recordings/difa.wav","yes","d","f","i","yes","a","difa","Controls","alveolar","NoPatternControls",NA,NA,NA,NA,0,50,50,59,NA,NA,NA,NA,"No",1.387,2,FALSE,19,59.9523731929,"chaldean, spanish, arabic","American English","VSH_Exp2","2016_Feb_23_1737",NA
"Recordings/tusu.wav","no","t","s","u","yes","u","tusu","Controls","alveolar","VoicingControls",NA,NA,NA,NA,0,51,51,45,NA,NA,NA,NA,"Yes",0.82,2,FALSE,19,59.9523731929,"chaldean, spanish, arabic","American English","VSH_Exp2","2016_Feb_23_1737",NA
"Recordings/bapu.wav","yes","b","p","a","yes","u","bapu","Controls","bilabial","StopControls",NA,NA,NA,NA,0,52,52,37,NA,NA,NA,NA,"Yes",0.936,2,FALSE,19,59.9523731929,"chaldean, spanish, arabic","American English","VSH_Exp2","2016_Feb_23_1737",NA
"Recordings/dutu.wav","yes","d","t","u","yes","u","dutu","Controls","alveolar","StopControls",NA,NA,NA,NA,0,53,53,31,NA,NA,NA,NA,"Yes",0.953,2,FALSE,19,59.9523731929,"chaldean, spanish, arabic","American English","VSH_Exp2","2016_Feb_23_1737",NA
"Recordings/sufu.wav","no","s","f","u","no","u","sufu","Test","alveolar","NewConsTestStimuli",NA,NA,NA,NA,0,54,54,12,NA,NA,NA,NA,"Yes",0.737,2,FALSE,19,59.9523731929,"chaldean, spanish, arabic","American English","VSH_Exp2","2016_Feb_23_1737",NA
"Recordings/pifa.wav","no","p","f","i","yes","a","pifa","Controls","bilabial","VoicingControls",NA,NA,NA,NA,0,55,55,44,NA,NA,NA,NA,"Yes",0.52,2,FALSE,19,59.9523731929,"chaldean, spanish, arabic","American English","VSH_Exp2","2016_Feb_23_1737",NA
"Recordings/fisa.wav","no","f","s","i","no","a","fisa","Test","bilabial","NewConsTestStimuli",NA,NA,NA,NA,0,56,56,16,NA,NA,NA,NA,"Yes",0.503,2,FALSE,19,59.9523731929,"chaldean, spanish, arabic","American English","VSH_Exp2","2016_Feb_23_1737",NA
"Recordings/fasi.wav","no","f","s","a","no","i","fasi","Test","bilabial","NewConsTestStimuli",NA,NA,NA,NA,0,57,57,13,NA,NA,NA,NA,"Yes",0.502,2,FALSE,19,59.9523731929,"chaldean, spanish, arabic","American English","VSH_Exp2","2016_Feb_23_1737",NA
"Recordings/sivi.wav","no","s","v","i","no","i","sivi","Controls","alveolar","StopControls",NA,NA,NA,NA,0,58,58,32,NA,NA,NA,NA,"No",1.22,2,FALSE,19,59.9523731929,"chaldean, spanish, arabic","American English","VSH_Exp2","2016_Feb_23_1737",NA
"Recordings/fasu.wav","no","f","s","a","no","u","fasu","Test","bilabial","NewConsTestStimuli",NA,NA,NA,NA,0,59,59,15,NA,NA,NA,NA,"Yes",0.97,2,FALSE,19,59.9523731929,"chaldean, spanish, arabic","American English","VSH_Exp2","2016_Feb_23_1737",NA
