"SOUND","VOICING","SEGMENT","SEGMENT3","SEGMENT2","STOP","SEGMENT4","STIMULUS","GENERAL_TYPE","PLACE","TYPE","trials.thisRepN","trials.thisTrialN","trials.thisN","trials.thisIndex","trials_2.thisRepN","trials_2.thisTrialN","trials_2.thisN","trials_2.thisIndex","SpaceBar.keys","SpaceBar.rt","key_resp_2.keys","key_resp_2.rt","rating.response","rating.rt","participant","Gender","Age","frameRate","OtherLanguages","NativeLanguage","expName","date","X34"
NA,NA,NA,NA,NA,NA,NA,NA,NA,NA,NA,NA,NA,NA,NA,NA,NA,NA,NA,"space",9.89543890953,NA,NA,NA,NA,32,"M",19,59.8813310567,NA,"American English","VSH_Exp2","2016_Mar_22_1751",NA
"Recordings/tipi.wav","no","t","p","i","yes","i","tipi","Training","alveolar","TrainingItems",0,0,0,89,NA,NA,NA,NA,NA,NA,NA,NA,NA,NA,32,"M",19,59.8813310567,NA,"American English","VSH_Exp2","2016_Mar_22_1751",NA
"Recordings/fisu.wav","no","f","s","i","no","u","fisu","Training","bilabial","TrainingItems",0,1,1,15,NA,NA,NA,NA,NA,NA,NA,NA,NA,NA,32,"M",19,59.8813310567,NA,"American English","VSH_Exp2","2016_Mar_22_1751",NA
"Recordings/dadi.wav","yes","d","d","a","yes","i","dadi","Training","alveolar","TrainingItems",0,2,2,33,NA,NA,NA,NA,NA,NA,NA,NA,NA,NA,32,"M",19,59.8813310567,NA,"American English","VSH_Exp2","2016_Mar_22_1751",NA
"Recordings/pupu.wav","no","p","p","u","yes","u","pupu","Training","bilabial","TrainingItems",0,3,3,8,NA,NA,NA,NA,NA,NA,NA,NA,NA,NA,32,"M",19,59.8813310567,NA,"American English","VSH_Exp2","2016_Mar_22_1751",NA
"Recordings/dabi.wav","yes","d","b","a","yes","i","dabi","Training","alveolar","TrainingItems",0,4,4,20,NA,NA,NA,NA,NA,NA,NA,NA,NA,NA,32,"M",19,59.8813310567,NA,"American English","VSH_Exp2","2016_Mar_22_1751",NA
"Recordings/puta.wav","no","p","t","u","yes","a","puta","Training","bilabial","TrainingItems",0,5,5,61,NA,NA,NA,NA,NA,NA,NA,NA,NA,NA,32,"M",19,59.8813310567,NA,"American English","VSH_Exp2","2016_Mar_22_1751",NA
"Recordings/susa.wav","no","s","s","u","no","a","susa","Training","alveolar","TrainingItems",0,6,6,31,NA,NA,NA,NA,NA,NA,NA,NA,NA,NA,32,"M",19,59.8813310567,NA,"American English","VSH_Exp2","2016_Mar_22_1751",NA
"Recordings/tupa.wav","no","t","p","u","yes","a","tupa","Training","alveolar","TrainingItems",0,7,7,23,NA,NA,NA,NA,NA,NA,NA,NA,NA,NA,32,"M",19,59.8813310567,NA,"American English","VSH_Exp2","2016_Mar_22_1751",NA
"Recordings/vavi.wav","yes","v","v","a","no","i","vavi","Training","bilabial","TrainingItems",0,8,8,78,NA,NA,NA,NA,NA,NA,NA,NA,NA,NA,32,"M",19,59.8813310567,NA,"American English","VSH_Exp2","2016_Mar_22_1751",NA
"Recordings/daba.wav","yes","d","b","a","yes","a","daba","Training","alveolar","TrainingItems",0,9,9,88,NA,NA,NA,NA,NA,NA,NA,NA,NA,NA,32,"M",19,59.8813310567,NA,"American English","VSH_Exp2","2016_Mar_22_1751",NA
"Recordings/vavu.wav","yes","v","v","a","no","u","vavu","Training","bilabial","TrainingItems",0,10,10,63,NA,NA,NA,NA,NA,NA,NA,NA,NA,NA,32,"M",19,59.8813310567,NA,"American English","VSH_Exp2","2016_Mar_22_1751",NA
"Recordings/bubu.wav","yes","b","b","u","yes","u","bubu","Training","bilabial","TrainingItems",0,11,11,27,NA,NA,NA,NA,NA,NA,NA,NA,NA,NA,32,"M",19,59.8813310567,NA,"American English","VSH_Exp2","2016_Mar_22_1751",NA
"Recordings/dibi.wav","yes","d","b","i","yes","i","dibi","Training","alveolar","TrainingItems",0,12,12,96,NA,NA,NA,NA,NA,NA,NA,NA,NA,NA,32,"M",19,59.8813310567,NA,"American English","VSH_Exp2","2016_Mar_22_1751",NA
"Recordings/vivi.wav","yes","v","v","i","no","i","vivi","Training","bilabial","TrainingItems",0,13,13,10,NA,NA,NA,NA,NA,NA,NA,NA,NA,NA,32,"M",19,59.8813310567,NA,"American English","VSH_Exp2","2016_Mar_22_1751",NA
"Recordings/pati.wav","no","p","t","a","yes","i","pati","Training","bilabial","TrainingItems",0,14,14,51,NA,NA,NA,NA,NA,NA,NA,NA,NA,NA,32,"M",19,59.8813310567,NA,"American English","VSH_Exp2","2016_Mar_22_1751",NA
"Recordings/sufa.wav","no","s","f","u","no","a","sufa","Training","alveolar","TrainingItems",0,15,15,69,NA,NA,NA,NA,NA,NA,NA,NA,NA,NA,32,"M",19,59.8813310567,NA,"American English","VSH_Exp2","2016_Mar_22_1751",NA
"Recordings/babi.wav","yes","b","b","a","yes","i","babi","Training","bilabial","TrainingItems",0,16,16,52,NA,NA,NA,NA,NA,NA,NA,NA,NA,NA,32,"M",19,59.8813310567,NA,"American English","VSH_Exp2","2016_Mar_22_1751",NA
"Recordings/sufu.wav","no","s","f","u","no","u","sufu","Training","alveolar","TrainingItems",0,17,17,91,NA,NA,NA,NA,NA,NA,NA,NA,NA,NA,32,"M",19,59.8813310567,NA,"American English","VSH_Exp2","2016_Mar_22_1751",NA
"Recordings/titu.wav","no","t","t","i","yes","u","titu","Training","alveolar","TrainingItems",0,18,18,21,NA,NA,NA,NA,NA,NA,NA,NA,NA,NA,32,"M",19,59.8813310567,NA,"American English","VSH_Exp2","2016_Mar_22_1751",NA
"Recordings/fafi.wav","no","f","f","a","no","i","fafi","Training","bilabial","TrainingItems",0,19,19,11,NA,NA,NA,NA,NA,NA,NA,NA,NA,NA,32,"M",19,59.8813310567,NA,"American English","VSH_Exp2","2016_Mar_22_1751",NA
"Recordings/vava.wav","yes","v","v","a","no","a","vava","Training","bilabial","TrainingItems",0,20,20,56,NA,NA,NA,NA,NA,NA,NA,NA,NA,NA,32,"M",19,59.8813310567,NA,"American English","VSH_Exp2","2016_Mar_22_1751",NA
"Recordings/babu.wav","yes","b","b","a","yes","u","babu","Training","bilabial","TrainingItems",0,21,21,39,NA,NA,NA,NA,NA,NA,NA,NA,NA,NA,32,"M",19,59.8813310567,NA,"American English","VSH_Exp2","2016_Mar_22_1751",NA
"Recordings/bada.wav","yes","b","d","a","yes","a","bada","Training","bilabial","TrainingItems",0,22,22,22,NA,NA,NA,NA,NA,NA,NA,NA,NA,NA,32,"M",19,59.8813310567,NA,"American English","VSH_Exp2","2016_Mar_22_1751",NA
"Recordings/badu.wav","yes","b","d","a","yes","u","badu","Training","bilabial","TrainingItems",0,23,23,98,NA,NA,NA,NA,NA,NA,NA,NA,NA,NA,32,"M",19,59.8813310567,NA,"American English","VSH_Exp2","2016_Mar_22_1751",NA
"Recordings/budu.wav","yes","b","d","u","yes","u","budu","Training","bilabial","TrainingItems",0,24,24,34,NA,NA,NA,NA,NA,NA,NA,NA,NA,NA,32,"M",19,59.8813310567,NA,"American English","VSH_Exp2","2016_Mar_22_1751",NA
"Recordings/didu.wav","yes","d","d","i","yes","u","didu","Training","alveolar","TrainingItems",0,25,25,83,NA,NA,NA,NA,NA,NA,NA,NA,NA,NA,32,"M",19,59.8813310567,NA,"American English","VSH_Exp2","2016_Mar_22_1751",NA
"Recordings/fifa.wav","no","f","f","i","no","a","fifa","Training","bilabial","TrainingItems",0,26,26,58,NA,NA,NA,NA,NA,NA,NA,NA,NA,NA,32,"M",19,59.8813310567,NA,"American English","VSH_Exp2","2016_Mar_22_1751",NA
"Recordings/fisi.wav","no","f","s","i","no","i","fisi","Training","bilabial","TrainingItems",0,27,27,80,NA,NA,NA,NA,NA,NA,NA,NA,NA,NA,32,"M",19,59.8813310567,NA,"American English","VSH_Exp2","2016_Mar_22_1751",NA
"Recordings/safu.wav","no","s","f","a","no","u","safu","Training","alveolar","TrainingItems",0,28,28,47,NA,NA,NA,NA,NA,NA,NA,NA,NA,NA,32,"M",19,59.8813310567,NA,"American English","VSH_Exp2","2016_Mar_22_1751",NA
"Recordings/bubi.wav","yes","b","b","u","yes","i","bubi","Training","bilabial","TrainingItems",0,29,29,68,NA,NA,NA,NA,NA,NA,NA,NA,NA,NA,32,"M",19,59.8813310567,NA,"American English","VSH_Exp2","2016_Mar_22_1751",NA
"Recordings/pupi.wav","no","p","p","u","yes","i","pupi","Training","bilabial","TrainingItems",0,30,30,87,NA,NA,NA,NA,NA,NA,NA,NA,NA,NA,32,"M",19,59.8813310567,NA,"American English","VSH_Exp2","2016_Mar_22_1751",NA
"Recordings/dubi.wav","yes","d","b","u","yes","i","dubi","Training","alveolar","TrainingItems",0,31,31,38,NA,NA,NA,NA,NA,NA,NA,NA,NA,NA,32,"M",19,59.8813310567,NA,"American English","VSH_Exp2","2016_Mar_22_1751",NA
"Recordings/piti.wav","no","p","t","i","yes","i","piti","Training","bilabial","TrainingItems",0,32,32,4,NA,NA,NA,NA,NA,NA,NA,NA,NA,NA,32,"M",19,59.8813310567,NA,"American English","VSH_Exp2","2016_Mar_22_1751",NA
"Recordings/pipi.wav","no","p","p","i","yes","i","pipi","Training","bilabial","TrainingItems",0,33,33,6,NA,NA,NA,NA,NA,NA,NA,NA,NA,NA,32,"M",19,59.8813310567,NA,"American English","VSH_Exp2","2016_Mar_22_1751",NA
"Recordings/safi.wav","no","s","f","a","no","i","safi","Training","alveolar","TrainingItems",0,34,34,19,NA,NA,NA,NA,NA,NA,NA,NA,NA,NA,32,"M",19,59.8813310567,NA,"American English","VSH_Exp2","2016_Mar_22_1751",NA
"Recordings/bidi.wav","yes","b","d","i","yes","i","bidi","Training","bilabial","TrainingItems",0,35,35,29,NA,NA,NA,NA,NA,NA,NA,NA,NA,NA,32,"M",19,59.8813310567,NA,"American English","VSH_Exp2","2016_Mar_22_1751",NA
"Recordings/tapa.wav","no","t","p","a","yes","a","tapa","Training","alveolar","TrainingItems",0,36,36,48,NA,NA,NA,NA,NA,NA,NA,NA,NA,NA,32,"M",19,59.8813310567,NA,"American English","VSH_Exp2","2016_Mar_22_1751",NA
"Recordings/dabu.wav","yes","d","b","a","yes","u","dabu","Training","alveolar","TrainingItems",0,37,37,57,NA,NA,NA,NA,NA,NA,NA,NA,NA,NA,32,"M",19,59.8813310567,NA,"American English","VSH_Exp2","2016_Mar_22_1751",NA
"Recordings/sisi.wav","no","s","s","i","no","i","sisi","Training","alveolar","TrainingItems",0,38,38,93,NA,NA,NA,NA,NA,NA,NA,NA,NA,NA,32,"M",19,59.8813310567,NA,"American English","VSH_Exp2","2016_Mar_22_1751",NA
"Recordings/patu.wav","no","p","t","a","yes","u","patu","Training","bilabial","TrainingItems",0,39,39,84,NA,NA,NA,NA,NA,NA,NA,NA,NA,NA,32,"M",19,59.8813310567,NA,"American English","VSH_Exp2","2016_Mar_22_1751",NA
"Recordings/sisu.wav","no","s","s","i","no","u","sisu","Training","alveolar","TrainingItems",0,40,40,3,NA,NA,NA,NA,NA,NA,NA,NA,NA,NA,32,"M",19,59.8813310567,NA,"American English","VSH_Exp2","2016_Mar_22_1751",NA
"Recordings/dubu.wav","yes","d","b","u","yes","u","dubu","Training","alveolar","TrainingItems",0,41,41,42,NA,NA,NA,NA,NA,NA,NA,NA,NA,NA,32,"M",19,59.8813310567,NA,"American English","VSH_Exp2","2016_Mar_22_1751",NA
"Recordings/ziza.wav","yes","z","z","i","no","a","ziza","Training","alveolar","TrainingItems",0,42,42,74,NA,NA,NA,NA,NA,NA,NA,NA,NA,NA,32,"M",19,59.8813310567,NA,"American English","VSH_Exp2","2016_Mar_22_1751",NA
"Recordings/tipu.wav","no","t","p","i","yes","u","tipu","Training","alveolar","TrainingItems",0,43,43,26,NA,NA,NA,NA,NA,NA,NA,NA,NA,NA,32,"M",19,59.8813310567,NA,"American English","VSH_Exp2","2016_Mar_22_1751",NA
"Recordings/papu.wav","no","p","p","a","yes","u","papu","Training","bilabial","TrainingItems",0,44,44,50,NA,NA,NA,NA,NA,NA,NA,NA,NA,NA,32,"M",19,59.8813310567,NA,"American English","VSH_Exp2","2016_Mar_22_1751",NA
"Recordings/zaza.wav","yes","z","z","a","no","a","zaza","Training","alveolar","TrainingItems",0,45,45,60,NA,NA,NA,NA,NA,NA,NA,NA,NA,NA,32,"M",19,59.8813310567,NA,"American English","VSH_Exp2","2016_Mar_22_1751",NA
"Recordings/tupu.wav","no","t","p","u","yes","u","tupu","Training","alveolar","TrainingItems",0,46,46,70,NA,NA,NA,NA,NA,NA,NA,NA,NA,NA,32,"M",19,59.8813310567,NA,"American English","VSH_Exp2","2016_Mar_22_1751",NA
"Recordings/tata.wav","no","t","t","a","yes","a","tata","Training","alveolar","TrainingItems",0,47,47,75,NA,NA,NA,NA,NA,NA,NA,NA,NA,NA,32,"M",19,59.8813310567,NA,"American English","VSH_Exp2","2016_Mar_22_1751",NA
"Recordings/tuti.wav","no","t","t","u","yes","i","tuti","Training","alveolar","TrainingItems",0,48,48,76,NA,NA,NA,NA,NA,NA,NA,NA,NA,NA,32,"M",19,59.8813310567,NA,"American English","VSH_Exp2","2016_Mar_22_1751",NA
"Recordings/viva.wav","yes","v","v","i","no","a","viva","Training","bilabial","TrainingItems",0,49,49,81,NA,NA,NA,NA,NA,NA,NA,NA,NA,NA,32,"M",19,59.8813310567,NA,"American English","VSH_Exp2","2016_Mar_22_1751",NA
"Recordings/vuva.wav","yes","v","v","u","no","a","vuva","Training","bilabial","TrainingItems",0,50,50,79,NA,NA,NA,NA,NA,NA,NA,NA,NA,NA,32,"M",19,59.8813310567,NA,"American English","VSH_Exp2","2016_Mar_22_1751",NA
"Recordings/pipa.wav","no","p","p","i","yes","a","pipa","Training","bilabial","TrainingItems",0,51,51,66,NA,NA,NA,NA,NA,NA,NA,NA,NA,NA,32,"M",19,59.8813310567,NA,"American English","VSH_Exp2","2016_Mar_22_1751",NA
"Recordings/fasa.wav","no","f","s","a","no","a","fasa","Training","bilabial","TrainingItems",0,52,52,92,NA,NA,NA,NA,NA,NA,NA,NA,NA,NA,32,"M",19,59.8813310567,NA,"American English","VSH_Exp2","2016_Mar_22_1751",NA
"Recordings/fufa.wav","no","f","f","u","no","a","fufa","Training","bilabial","TrainingItems",0,53,53,24,NA,NA,NA,NA,NA,NA,NA,NA,NA,NA,32,"M",19,59.8813310567,NA,"American English","VSH_Exp2","2016_Mar_22_1751",NA
"Recordings/dudi.wav","yes","d","d","u","yes","i","dudi","Training","alveolar","TrainingItems",0,54,54,90,NA,NA,NA,NA,NA,NA,NA,NA,NA,NA,32,"M",19,59.8813310567,NA,"American English","VSH_Exp2","2016_Mar_22_1751",NA
"Recordings/pata.wav","no","p","t","a","yes","a","pata","Training","bilabial","TrainingItems",0,55,55,73,NA,NA,NA,NA,NA,NA,NA,NA,NA,NA,32,"M",19,59.8813310567,NA,"American English","VSH_Exp2","2016_Mar_22_1751",NA
"Recordings/tapu.wav","no","t","p","a","yes","u","tapu","Training","alveolar","TrainingItems",0,56,56,14,NA,NA,NA,NA,NA,NA,NA,NA,NA,NA,32,"M",19,59.8813310567,NA,"American English","VSH_Exp2","2016_Mar_22_1751",NA
"Recordings/bibu.wav","yes","b","b","i","yes","u","bibu","Training","bilabial","TrainingItems",0,57,57,77,NA,NA,NA,NA,NA,NA,NA,NA,NA,NA,32,"M",19,59.8813310567,NA,"American English","VSH_Exp2","2016_Mar_22_1751",NA
"Recordings/putu.wav","no","p","t","u","yes","u","putu","Training","bilabial","TrainingItems",0,58,58,62,NA,NA,NA,NA,NA,NA,NA,NA,NA,NA,32,"M",19,59.8813310567,NA,"American English","VSH_Exp2","2016_Mar_22_1751",NA
"Recordings/biba.wav","yes","b","b","i","yes","a","biba","Training","bilabial","TrainingItems",0,59,59,30,NA,NA,NA,NA,NA,NA,NA,NA,NA,NA,32,"M",19,59.8813310567,NA,"American English","VSH_Exp2","2016_Mar_22_1751",NA
"Recordings/sifi.wav","no","s","f","i","no","i","sifi","Training","alveolar","TrainingItems",0,60,60,71,NA,NA,NA,NA,NA,NA,NA,NA,NA,NA,32,"M",19,59.8813310567,NA,"American English","VSH_Exp2","2016_Mar_22_1751",NA
"Recordings/badi.wav","yes","b","d","a","yes","i","badi","Training","bilabial","TrainingItems",0,61,61,95,NA,NA,NA,NA,NA,NA,NA,NA,NA,NA,32,"M",19,59.8813310567,NA,"American English","VSH_Exp2","2016_Mar_22_1751",NA
"Recordings/susi.wav","no","s","s","u","no","i","susi","Training","alveolar","TrainingItems",0,62,62,13,NA,NA,NA,NA,NA,NA,NA,NA,NA,NA,32,"M",19,59.8813310567,NA,"American English","VSH_Exp2","2016_Mar_22_1751",NA
"Recordings/safa.wav","no","s","f","a","no","a","safa","Training","alveolar","TrainingItems",0,63,63,53,NA,NA,NA,NA,NA,NA,NA,NA,NA,NA,32,"M",19,59.8813310567,NA,"American English","VSH_Exp2","2016_Mar_22_1751",NA
"Recordings/sifa.wav","no","s","f","i","no","a","sifa","Training","alveolar","TrainingItems",0,64,64,7,NA,NA,NA,NA,NA,NA,NA,NA,NA,NA,32,"M",19,59.8813310567,NA,"American English","VSH_Exp2","2016_Mar_22_1751",NA
"Recordings/bida.wav","yes","b","d","i","yes","a","bida","Training","bilabial","TrainingItems",0,65,65,0,NA,NA,NA,NA,NA,NA,NA,NA,NA,NA,32,"M",19,59.8813310567,NA,"American English","VSH_Exp2","2016_Mar_22_1751",NA
"Recordings/pita.wav","no","p","t","i","yes","a","pita","Training","bilabial","TrainingItems",0,66,66,45,NA,NA,NA,NA,NA,NA,NA,NA,NA,NA,32,"M",19,59.8813310567,NA,"American English","VSH_Exp2","2016_Mar_22_1751",NA
"Recordings/fusi.wav","no","f","s","u","no","i","fusi","Training","bilabial","TrainingItems",0,67,67,1,NA,NA,NA,NA,NA,NA,NA,NA,NA,NA,32,"M",19,59.8813310567,NA,"American English","VSH_Exp2","2016_Mar_22_1751",NA
"Recordings/duda.wav","yes","d","d","u","yes","a","duda","Training","alveolar","TrainingItems",0,68,68,18,NA,NA,NA,NA,NA,NA,NA,NA,NA,NA,32,"M",19,59.8813310567,NA,"American English","VSH_Exp2","2016_Mar_22_1751",NA
"Recordings/susu.wav","no","s","s","u","no","u","susu","Training","alveolar","TrainingItems",0,69,69,2,NA,NA,NA,NA,NA,NA,NA,NA,NA,NA,32,"M",19,59.8813310567,NA,"American English","VSH_Exp2","2016_Mar_22_1751",NA
"Recordings/fifi.wav","no","f","f","i","no","i","fifi","Training","bilabial","TrainingItems",0,70,70,54,NA,NA,NA,NA,NA,NA,NA,NA,NA,NA,32,"M",19,59.8813310567,NA,"American English","VSH_Exp2","2016_Mar_22_1751",NA
"Recordings/vuvu.wav","yes","v","v","u","no","u","vuvu","Training","bilabial","TrainingItems",0,71,71,82,NA,NA,NA,NA,NA,NA,NA,NA,NA,NA,32,"M",19,59.8813310567,NA,"American English","VSH_Exp2","2016_Mar_22_1751",NA
"Recordings/zuzu.wav","yes","z","z","u","no","u","zuzu","Training","alveolar","TrainingItems",0,72,72,59,NA,NA,NA,NA,NA,NA,NA,NA,NA,NA,32,"M",19,59.8813310567,NA,"American English","VSH_Exp2","2016_Mar_22_1751",NA
"Recordings/pitu.wav","no","p","t","i","yes","u","pitu","Training","bilabial","TrainingItems",0,73,73,36,NA,NA,NA,NA,NA,NA,NA,NA,NA,NA,32,"M",19,59.8813310567,NA,"American English","VSH_Exp2","2016_Mar_22_1751",NA
"Recordings/diba.wav","yes","d","b","i","yes","a","diba","Training","alveolar","TrainingItems",0,74,74,16,NA,NA,NA,NA,NA,NA,NA,NA,NA,NA,32,"M",19,59.8813310567,NA,"American English","VSH_Exp2","2016_Mar_22_1751",NA
"Recordings/didi.wav","yes","d","d","i","yes","i","didi","Training","alveolar","TrainingItems",0,75,75,9,NA,NA,NA,NA,NA,NA,NA,NA,NA,NA,32,"M",19,59.8813310567,NA,"American English","VSH_Exp2","2016_Mar_22_1751",NA
"Recordings/sufi.wav","no","s","f","u","no","i","sufi","Training","alveolar","TrainingItems",0,76,76,25,NA,NA,NA,NA,NA,NA,NA,NA,NA,NA,32,"M",19,59.8813310567,NA,"American English","VSH_Exp2","2016_Mar_22_1751",NA
"Recordings/papi.wav","no","p","p","a","yes","i","papi","Training","bilabial","TrainingItems",0,77,77,28,NA,NA,NA,NA,NA,NA,NA,NA,NA,NA,32,"M",19,59.8813310567,NA,"American English","VSH_Exp2","2016_Mar_22_1751",NA
"Recordings/zuzi.wav","yes","z","z","u","no","i","zuzi","Training","alveolar","TrainingItems",0,78,78,94,NA,NA,NA,NA,NA,NA,NA,NA,NA,NA,32,"M",19,59.8813310567,NA,"American English","VSH_Exp2","2016_Mar_22_1751",NA
"Recordings/fisa.wav","no","f","s","i","no","a","fisa","Training","bilabial","TrainingItems",0,79,79,64,NA,NA,NA,NA,NA,NA,NA,NA,NA,NA,32,"M",19,59.8813310567,NA,"American English","VSH_Exp2","2016_Mar_22_1751",NA
"Recordings/zuza.wav","yes","z","z","u","no","a","zuza","Training","alveolar","TrainingItems",0,80,80,17,NA,NA,NA,NA,NA,NA,NA,NA,NA,NA,32,"M",19,59.8813310567,NA,"American English","VSH_Exp2","2016_Mar_22_1751",NA
"Recordings/zazi.wav","yes","z","z","a","no","i","zazi","Training","alveolar","TrainingItems",0,81,81,5,NA,NA,NA,NA,NA,NA,NA,NA,NA,NA,32,"M",19,59.8813310567,NA,"American English","VSH_Exp2","2016_Mar_22_1751",NA
"Recordings/dibu.wav","yes","d","b","i","yes","u","dibu","Training","alveolar","TrainingItems",0,82,82,43,NA,NA,NA,NA,NA,NA,NA,NA,NA,NA,32,"M",19,59.8813310567,NA,"American English","VSH_Exp2","2016_Mar_22_1751",NA
"Recordings/sifu.wav","no","s","f","i","no","u","sifu","Training","alveolar","TrainingItems",0,83,83,35,NA,NA,NA,NA,NA,NA,NA,NA,NA,NA,32,"M",19,59.8813310567,NA,"American English","VSH_Exp2","2016_Mar_22_1751",NA
"Recordings/puti.wav","no","p","t","u","yes","i","puti","Training","bilabial","TrainingItems",0,84,84,99,NA,NA,NA,NA,NA,NA,NA,NA,NA,NA,32,"M",19,59.8813310567,NA,"American English","VSH_Exp2","2016_Mar_22_1751",NA
"Recordings/bidu.wav","yes","b","d","i","yes","u","bidu","Training","bilabial","TrainingItems",0,85,85,72,NA,NA,NA,NA,NA,NA,NA,NA,NA,NA,32,"M",19,59.8813310567,NA,"American English","VSH_Exp2","2016_Mar_22_1751",NA
"Recordings/fafu.wav","no","f","f","a","no","u","fafu","Training","bilabial","TrainingItems",0,86,86,86,NA,NA,NA,NA,NA,NA,NA,NA,NA,NA,32,"M",19,59.8813310567,NA,"American English","VSH_Exp2","2016_Mar_22_1751",NA
"Recordings/tupi.wav","no","t","p","u","yes","i","tupi","Training","alveolar","TrainingItems",0,87,87,41,NA,NA,NA,NA,NA,NA,NA,NA,NA,NA,32,"M",19,59.8813310567,NA,"American English","VSH_Exp2","2016_Mar_22_1751",NA
"Recordings/zizi.wav","yes","z","z","i","no","i","zizi","Training","alveolar","TrainingItems",0,88,88,55,NA,NA,NA,NA,NA,NA,NA,NA,NA,NA,32,"M",19,59.8813310567,NA,"American English","VSH_Exp2","2016_Mar_22_1751",NA
"Recordings/dudu.wav","yes","d","d","u","yes","u","dudu","Training","alveolar","TrainingItems",0,89,89,12,NA,NA,NA,NA,NA,NA,NA,NA,NA,NA,32,"M",19,59.8813310567,NA,"American English","VSH_Exp2","2016_Mar_22_1751",NA
"Recordings/tati.wav","no","t","t","a","yes","i","tati","Training","alveolar","TrainingItems",0,90,90,97,NA,NA,NA,NA,NA,NA,NA,NA,NA,NA,32,"M",19,59.8813310567,NA,"American English","VSH_Exp2","2016_Mar_22_1751",NA
"Recordings/pupa.wav","no","p","p","u","yes","a","pupa","Training","bilabial","TrainingItems",0,91,91,85,NA,NA,NA,NA,NA,NA,NA,NA,NA,NA,32,"M",19,59.8813310567,NA,"American English","VSH_Exp2","2016_Mar_22_1751",NA
"Recordings/fufi.wav","no","f","f","u","no","i","fufi","Training","bilabial","TrainingItems",0,92,92,40,NA,NA,NA,NA,NA,NA,NA,NA,NA,NA,32,"M",19,59.8813310567,NA,"American English","VSH_Exp2","2016_Mar_22_1751",NA
"Recordings/tuta.wav","no","t","t","u","yes","a","tuta","Training","alveolar","TrainingItems",0,93,93,67,NA,NA,NA,NA,NA,NA,NA,NA,NA,NA,32,"M",19,59.8813310567,NA,"American English","VSH_Exp2","2016_Mar_22_1751",NA
"Recordings/fafa.wav","no","f","f","a","no","a","fafa","Training","bilabial","TrainingItems",0,94,94,44,NA,NA,NA,NA,NA,NA,NA,NA,NA,NA,32,"M",19,59.8813310567,NA,"American English","VSH_Exp2","2016_Mar_22_1751",NA
"Recordings/baba.wav","yes","b","b","a","yes","a","baba","Training","bilabial","TrainingItems",0,95,95,46,NA,NA,NA,NA,NA,NA,NA,NA,NA,NA,32,"M",19,59.8813310567,NA,"American English","VSH_Exp2","2016_Mar_22_1751",NA
"Recordings/fasi.wav","no","f","s","a","no","i","fasi","Training","bilabial","TrainingItems",0,96,96,37,NA,NA,NA,NA,NA,NA,NA,NA,NA,NA,32,"M",19,59.8813310567,NA,"American English","VSH_Exp2","2016_Mar_22_1751",NA
"Recordings/buba.wav","yes","b","b","u","yes","a","buba","Training","bilabial","TrainingItems",0,97,97,32,NA,NA,NA,NA,NA,NA,NA,NA,NA,NA,32,"M",19,59.8813310567,NA,"American English","VSH_Exp2","2016_Mar_22_1751",NA
"Recordings/papa.wav","no","p","p","a","yes","a","papa","Training","bilabial","TrainingItems",0,98,98,49,NA,NA,NA,NA,NA,NA,NA,NA,NA,NA,32,"M",19,59.8813310567,NA,"American English","VSH_Exp2","2016_Mar_22_1751",NA
"Recordings/fufu.wav","no","f","f","u","no","u","fufu","Training","bilabial","TrainingItems",0,99,99,65,NA,NA,NA,NA,NA,NA,NA,NA,NA,NA,32,"M",19,59.8813310567,NA,"American English","VSH_Exp2","2016_Mar_22_1751",NA
"Recordings/safi.wav","no","s","f","a","no","i","safi","Training","alveolar","TrainingItems",1,0,100,19,NA,NA,NA,NA,NA,NA,NA,NA,NA,NA,32,"M",19,59.8813310567,NA,"American English","VSH_Exp2","2016_Mar_22_1751",NA
"Recordings/fafu.wav","no","f","f","a","no","u","fafu","Training","bilabial","TrainingItems",1,1,101,86,NA,NA,NA,NA,NA,NA,NA,NA,NA,NA,32,"M",19,59.8813310567,NA,"American English","VSH_Exp2","2016_Mar_22_1751",NA
"Recordings/puta.wav","no","p","t","u","yes","a","puta","Training","bilabial","TrainingItems",1,2,102,61,NA,NA,NA,NA,NA,NA,NA,NA,NA,NA,32,"M",19,59.8813310567,NA,"American English","VSH_Exp2","2016_Mar_22_1751",NA
"Recordings/tapa.wav","no","t","p","a","yes","a","tapa","Training","alveolar","TrainingItems",1,3,103,48,NA,NA,NA,NA,NA,NA,NA,NA,NA,NA,32,"M",19,59.8813310567,NA,"American English","VSH_Exp2","2016_Mar_22_1751",NA
"Recordings/vavu.wav","yes","v","v","a","no","u","vavu","Training","bilabial","TrainingItems",1,4,104,63,NA,NA,NA,NA,NA,NA,NA,NA,NA,NA,32,"M",19,59.8813310567,NA,"American English","VSH_Exp2","2016_Mar_22_1751",NA
"Recordings/badu.wav","yes","b","d","a","yes","u","badu","Training","bilabial","TrainingItems",1,5,105,98,NA,NA,NA,NA,NA,NA,NA,NA,NA,NA,32,"M",19,59.8813310567,NA,"American English","VSH_Exp2","2016_Mar_22_1751",NA
"Recordings/fifa.wav","no","f","f","i","no","a","fifa","Training","bilabial","TrainingItems",1,6,106,58,NA,NA,NA,NA,NA,NA,NA,NA,NA,NA,32,"M",19,59.8813310567,NA,"American English","VSH_Exp2","2016_Mar_22_1751",NA
"Recordings/pipa.wav","no","p","p","i","yes","a","pipa","Training","bilabial","TrainingItems",1,7,107,66,NA,NA,NA,NA,NA,NA,NA,NA,NA,NA,32,"M",19,59.8813310567,NA,"American English","VSH_Exp2","2016_Mar_22_1751",NA
"Recordings/fasa.wav","no","f","s","a","no","a","fasa","Training","bilabial","TrainingItems",1,8,108,92,NA,NA,NA,NA,NA,NA,NA,NA,NA,NA,32,"M",19,59.8813310567,NA,"American English","VSH_Exp2","2016_Mar_22_1751",NA
"Recordings/vava.wav","yes","v","v","a","no","a","vava","Training","bilabial","TrainingItems",1,9,109,56,NA,NA,NA,NA,NA,NA,NA,NA,NA,NA,32,"M",19,59.8813310567,NA,"American English","VSH_Exp2","2016_Mar_22_1751",NA
"Recordings/dabi.wav","yes","d","b","a","yes","i","dabi","Training","alveolar","TrainingItems",1,10,110,20,NA,NA,NA,NA,NA,NA,NA,NA,NA,NA,32,"M",19,59.8813310567,NA,"American English","VSH_Exp2","2016_Mar_22_1751",NA
"Recordings/tuta.wav","no","t","t","u","yes","a","tuta","Training","alveolar","TrainingItems",1,11,111,67,NA,NA,NA,NA,NA,NA,NA,NA,NA,NA,32,"M",19,59.8813310567,NA,"American English","VSH_Exp2","2016_Mar_22_1751",NA
"Recordings/tupa.wav","no","t","p","u","yes","a","tupa","Training","alveolar","TrainingItems",1,12,112,23,NA,NA,NA,NA,NA,NA,NA,NA,NA,NA,32,"M",19,59.8813310567,NA,"American English","VSH_Exp2","2016_Mar_22_1751",NA
"Recordings/zuzu.wav","yes","z","z","u","no","u","zuzu","Training","alveolar","TrainingItems",1,13,113,59,NA,NA,NA,NA,NA,NA,NA,NA,NA,NA,32,"M",19,59.8813310567,NA,"American English","VSH_Exp2","2016_Mar_22_1751",NA
"Recordings/fasi.wav","no","f","s","a","no","i","fasi","Training","bilabial","TrainingItems",1,14,114,37,NA,NA,NA,NA,NA,NA,NA,NA,NA,NA,32,"M",19,59.8813310567,NA,"American English","VSH_Exp2","2016_Mar_22_1751",NA
"Recordings/tipu.wav","no","t","p","i","yes","u","tipu","Training","alveolar","TrainingItems",1,15,115,26,NA,NA,NA,NA,NA,NA,NA,NA,NA,NA,32,"M",19,59.8813310567,NA,"American English","VSH_Exp2","2016_Mar_22_1751",NA
"Recordings/pitu.wav","no","p","t","i","yes","u","pitu","Training","bilabial","TrainingItems",1,16,116,36,NA,NA,NA,NA,NA,NA,NA,NA,NA,NA,32,"M",19,59.8813310567,NA,"American English","VSH_Exp2","2016_Mar_22_1751",NA
"Recordings/zizi.wav","yes","z","z","i","no","i","zizi","Training","alveolar","TrainingItems",1,17,117,55,NA,NA,NA,NA,NA,NA,NA,NA,NA,NA,32,"M",19,59.8813310567,NA,"American English","VSH_Exp2","2016_Mar_22_1751",NA
"Recordings/bida.wav","yes","b","d","i","yes","a","bida","Training","bilabial","TrainingItems",1,18,118,0,NA,NA,NA,NA,NA,NA,NA,NA,NA,NA,32,"M",19,59.8813310567,NA,"American English","VSH_Exp2","2016_Mar_22_1751",NA
"Recordings/fufu.wav","no","f","f","u","no","u","fufu","Training","bilabial","TrainingItems",1,19,119,65,NA,NA,NA,NA,NA,NA,NA,NA,NA,NA,32,"M",19,59.8813310567,NA,"American English","VSH_Exp2","2016_Mar_22_1751",NA
"Recordings/bada.wav","yes","b","d","a","yes","a","bada","Training","bilabial","TrainingItems",1,20,120,22,NA,NA,NA,NA,NA,NA,NA,NA,NA,NA,32,"M",19,59.8813310567,NA,"American English","VSH_Exp2","2016_Mar_22_1751",NA
"Recordings/zuzi.wav","yes","z","z","u","no","i","zuzi","Training","alveolar","TrainingItems",1,21,121,94,NA,NA,NA,NA,NA,NA,NA,NA,NA,NA,32,"M",19,59.8813310567,NA,"American English","VSH_Exp2","2016_Mar_22_1751",NA
"Recordings/tipi.wav","no","t","p","i","yes","i","tipi","Training","alveolar","TrainingItems",1,22,122,89,NA,NA,NA,NA,NA,NA,NA,NA,NA,NA,32,"M",19,59.8813310567,NA,"American English","VSH_Exp2","2016_Mar_22_1751",NA
"Recordings/didu.wav","yes","d","d","i","yes","u","didu","Training","alveolar","TrainingItems",1,23,123,83,NA,NA,NA,NA,NA,NA,NA,NA,NA,NA,32,"M",19,59.8813310567,NA,"American English","VSH_Exp2","2016_Mar_22_1751",NA
"Recordings/fufi.wav","no","f","f","u","no","i","fufi","Training","bilabial","TrainingItems",1,24,124,40,NA,NA,NA,NA,NA,NA,NA,NA,NA,NA,32,"M",19,59.8813310567,NA,"American English","VSH_Exp2","2016_Mar_22_1751",NA
"Recordings/tuti.wav","no","t","t","u","yes","i","tuti","Training","alveolar","TrainingItems",1,25,125,76,NA,NA,NA,NA,NA,NA,NA,NA,NA,NA,32,"M",19,59.8813310567,NA,"American English","VSH_Exp2","2016_Mar_22_1751",NA
"Recordings/putu.wav","no","p","t","u","yes","u","putu","Training","bilabial","TrainingItems",1,26,126,62,NA,NA,NA,NA,NA,NA,NA,NA,NA,NA,32,"M",19,59.8813310567,NA,"American English","VSH_Exp2","2016_Mar_22_1751",NA
"Recordings/susi.wav","no","s","s","u","no","i","susi","Training","alveolar","TrainingItems",1,27,127,13,NA,NA,NA,NA,NA,NA,NA,NA,NA,NA,32,"M",19,59.8813310567,NA,"American English","VSH_Exp2","2016_Mar_22_1751",NA
"Recordings/dibi.wav","yes","d","b","i","yes","i","dibi","Training","alveolar","TrainingItems",1,28,128,96,NA,NA,NA,NA,NA,NA,NA,NA,NA,NA,32,"M",19,59.8813310567,NA,"American English","VSH_Exp2","2016_Mar_22_1751",NA
"Recordings/bidu.wav","yes","b","d","i","yes","u","bidu","Training","bilabial","TrainingItems",1,29,129,72,NA,NA,NA,NA,NA,NA,NA,NA,NA,NA,32,"M",19,59.8813310567,NA,"American English","VSH_Exp2","2016_Mar_22_1751",NA
"Recordings/fafa.wav","no","f","f","a","no","a","fafa","Training","bilabial","TrainingItems",1,30,130,44,NA,NA,NA,NA,NA,NA,NA,NA,NA,NA,32,"M",19,59.8813310567,NA,"American English","VSH_Exp2","2016_Mar_22_1751",NA
"Recordings/ziza.wav","yes","z","z","i","no","a","ziza","Training","alveolar","TrainingItems",1,31,131,74,NA,NA,NA,NA,NA,NA,NA,NA,NA,NA,32,"M",19,59.8813310567,NA,"American English","VSH_Exp2","2016_Mar_22_1751",NA
"Recordings/sisi.wav","no","s","s","i","no","i","sisi","Training","alveolar","TrainingItems",1,32,132,93,NA,NA,NA,NA,NA,NA,NA,NA,NA,NA,32,"M",19,59.8813310567,NA,"American English","VSH_Exp2","2016_Mar_22_1751",NA
"Recordings/pupi.wav","no","p","p","u","yes","i","pupi","Training","bilabial","TrainingItems",1,33,133,87,NA,NA,NA,NA,NA,NA,NA,NA,NA,NA,32,"M",19,59.8813310567,NA,"American English","VSH_Exp2","2016_Mar_22_1751",NA
"Recordings/diba.wav","yes","d","b","i","yes","a","diba","Training","alveolar","TrainingItems",1,34,134,16,NA,NA,NA,NA,NA,NA,NA,NA,NA,NA,32,"M",19,59.8813310567,NA,"American English","VSH_Exp2","2016_Mar_22_1751",NA
"Recordings/baba.wav","yes","b","b","a","yes","a","baba","Training","bilabial","TrainingItems",1,35,135,46,NA,NA,NA,NA,NA,NA,NA,NA,NA,NA,32,"M",19,59.8813310567,NA,"American English","VSH_Exp2","2016_Mar_22_1751",NA
"Recordings/titu.wav","no","t","t","i","yes","u","titu","Training","alveolar","TrainingItems",1,36,136,21,NA,NA,NA,NA,NA,NA,NA,NA,NA,NA,32,"M",19,59.8813310567,NA,"American English","VSH_Exp2","2016_Mar_22_1751",NA
"Recordings/fusi.wav","no","f","s","u","no","i","fusi","Training","bilabial","TrainingItems",1,37,137,1,NA,NA,NA,NA,NA,NA,NA,NA,NA,NA,32,"M",19,59.8813310567,NA,"American English","VSH_Exp2","2016_Mar_22_1751",NA
"Recordings/pati.wav","no","p","t","a","yes","i","pati","Training","bilabial","TrainingItems",1,38,138,51,NA,NA,NA,NA,NA,NA,NA,NA,NA,NA,32,"M",19,59.8813310567,NA,"American English","VSH_Exp2","2016_Mar_22_1751",NA
"Recordings/fisi.wav","no","f","s","i","no","i","fisi","Training","bilabial","TrainingItems",1,39,139,80,NA,NA,NA,NA,NA,NA,NA,NA,NA,NA,32,"M",19,59.8813310567,NA,"American English","VSH_Exp2","2016_Mar_22_1751",NA
"Recordings/buba.wav","yes","b","b","u","yes","a","buba","Training","bilabial","TrainingItems",1,40,140,32,NA,NA,NA,NA,NA,NA,NA,NA,NA,NA,32,"M",19,59.8813310567,NA,"American English","VSH_Exp2","2016_Mar_22_1751",NA
"Recordings/papu.wav","no","p","p","a","yes","u","papu","Training","bilabial","TrainingItems",1,41,141,50,NA,NA,NA,NA,NA,NA,NA,NA,NA,NA,32,"M",19,59.8813310567,NA,"American English","VSH_Exp2","2016_Mar_22_1751",NA
"Recordings/sifi.wav","no","s","f","i","no","i","sifi","Training","alveolar","TrainingItems",1,42,142,71,NA,NA,NA,NA,NA,NA,NA,NA,NA,NA,32,"M",19,59.8813310567,NA,"American English","VSH_Exp2","2016_Mar_22_1751",NA
"Recordings/dubi.wav","yes","d","b","u","yes","i","dubi","Training","alveolar","TrainingItems",1,43,143,38,NA,NA,NA,NA,NA,NA,NA,NA,NA,NA,32,"M",19,59.8813310567,NA,"American English","VSH_Exp2","2016_Mar_22_1751",NA
"Recordings/vuva.wav","yes","v","v","u","no","a","vuva","Training","bilabial","TrainingItems",1,44,144,79,NA,NA,NA,NA,NA,NA,NA,NA,NA,NA,32,"M",19,59.8813310567,NA,"American English","VSH_Exp2","2016_Mar_22_1751",NA
"Recordings/duda.wav","yes","d","d","u","yes","a","duda","Training","alveolar","TrainingItems",1,45,145,18,NA,NA,NA,NA,NA,NA,NA,NA,NA,NA,32,"M",19,59.8813310567,NA,"American English","VSH_Exp2","2016_Mar_22_1751",NA
"Recordings/sufi.wav","no","s","f","u","no","i","sufi","Training","alveolar","TrainingItems",1,46,146,25,NA,NA,NA,NA,NA,NA,NA,NA,NA,NA,32,"M",19,59.8813310567,NA,"American English","VSH_Exp2","2016_Mar_22_1751",NA
"Recordings/sifa.wav","no","s","f","i","no","a","sifa","Training","alveolar","TrainingItems",1,47,147,7,NA,NA,NA,NA,NA,NA,NA,NA,NA,NA,32,"M",19,59.8813310567,NA,"American English","VSH_Exp2","2016_Mar_22_1751",NA
"Recordings/zaza.wav","yes","z","z","a","no","a","zaza","Training","alveolar","TrainingItems",1,48,148,60,NA,NA,NA,NA,NA,NA,NA,NA,NA,NA,32,"M",19,59.8813310567,NA,"American English","VSH_Exp2","2016_Mar_22_1751",NA
"Recordings/biba.wav","yes","b","b","i","yes","a","biba","Training","bilabial","TrainingItems",1,49,149,30,NA,NA,NA,NA,NA,NA,NA,NA,NA,NA,32,"M",19,59.8813310567,NA,"American English","VSH_Exp2","2016_Mar_22_1751",NA
"Recordings/zuza.wav","yes","z","z","u","no","a","zuza","Training","alveolar","TrainingItems",1,50,150,17,NA,NA,NA,NA,NA,NA,NA,NA,NA,NA,32,"M",19,59.8813310567,NA,"American English","VSH_Exp2","2016_Mar_22_1751",NA
"Recordings/tati.wav","no","t","t","a","yes","i","tati","Training","alveolar","TrainingItems",1,51,151,97,NA,NA,NA,NA,NA,NA,NA,NA,NA,NA,32,"M",19,59.8813310567,NA,"American English","VSH_Exp2","2016_Mar_22_1751",NA
"Recordings/puti.wav","no","p","t","u","yes","i","puti","Training","bilabial","TrainingItems",1,52,152,99,NA,NA,NA,NA,NA,NA,NA,NA,NA,NA,32,"M",19,59.8813310567,NA,"American English","VSH_Exp2","2016_Mar_22_1751",NA
"Recordings/patu.wav","no","p","t","a","yes","u","patu","Training","bilabial","TrainingItems",1,53,153,84,NA,NA,NA,NA,NA,NA,NA,NA,NA,NA,32,"M",19,59.8813310567,NA,"American English","VSH_Exp2","2016_Mar_22_1751",NA
"Recordings/dubu.wav","yes","d","b","u","yes","u","dubu","Training","alveolar","TrainingItems",1,54,154,42,NA,NA,NA,NA,NA,NA,NA,NA,NA,NA,32,"M",19,59.8813310567,NA,"American English","VSH_Exp2","2016_Mar_22_1751",NA
"Recordings/viva.wav","yes","v","v","i","no","a","viva","Training","bilabial","TrainingItems",1,55,155,81,NA,NA,NA,NA,NA,NA,NA,NA,NA,NA,32,"M",19,59.8813310567,NA,"American English","VSH_Exp2","2016_Mar_22_1751",NA
"Recordings/papi.wav","no","p","p","a","yes","i","papi","Training","bilabial","TrainingItems",1,56,156,28,NA,NA,NA,NA,NA,NA,NA,NA,NA,NA,32,"M",19,59.8813310567,NA,"American English","VSH_Exp2","2016_Mar_22_1751",NA
"Recordings/dadi.wav","yes","d","d","a","yes","i","dadi","Training","alveolar","TrainingItems",1,57,157,33,NA,NA,NA,NA,NA,NA,NA,NA,NA,NA,32,"M",19,59.8813310567,NA,"American English","VSH_Exp2","2016_Mar_22_1751",NA
"Recordings/vuvu.wav","yes","v","v","u","no","u","vuvu","Training","bilabial","TrainingItems",1,58,158,82,NA,NA,NA,NA,NA,NA,NA,NA,NA,NA,32,"M",19,59.8813310567,NA,"American English","VSH_Exp2","2016_Mar_22_1751",NA
"Recordings/zazi.wav","yes","z","z","a","no","i","zazi","Training","alveolar","TrainingItems",1,59,159,5,NA,NA,NA,NA,NA,NA,NA,NA,NA,NA,32,"M",19,59.8813310567,NA,"American English","VSH_Exp2","2016_Mar_22_1751",NA
"Recordings/fisu.wav","no","f","s","i","no","u","fisu","Training","bilabial","TrainingItems",1,60,160,15,NA,NA,NA,NA,NA,NA,NA,NA,NA,NA,32,"M",19,59.8813310567,NA,"American English","VSH_Exp2","2016_Mar_22_1751",NA
"Recordings/fafi.wav","no","f","f","a","no","i","fafi","Training","bilabial","TrainingItems",1,61,161,11,NA,NA,NA,NA,NA,NA,NA,NA,NA,NA,32,"M",19,59.8813310567,NA,"American English","VSH_Exp2","2016_Mar_22_1751",NA
"Recordings/pipi.wav","no","p","p","i","yes","i","pipi","Training","bilabial","TrainingItems",1,62,162,6,NA,NA,NA,NA,NA,NA,NA,NA,NA,NA,32,"M",19,59.8813310567,NA,"American English","VSH_Exp2","2016_Mar_22_1751",NA
"Recordings/dibu.wav","yes","d","b","i","yes","u","dibu","Training","alveolar","TrainingItems",1,63,163,43,NA,NA,NA,NA,NA,NA,NA,NA,NA,NA,32,"M",19,59.8813310567,NA,"American English","VSH_Exp2","2016_Mar_22_1751",NA
"Recordings/pupa.wav","no","p","p","u","yes","a","pupa","Training","bilabial","TrainingItems",1,64,164,85,NA,NA,NA,NA,NA,NA,NA,NA,NA,NA,32,"M",19,59.8813310567,NA,"American English","VSH_Exp2","2016_Mar_22_1751",NA
"Recordings/tupi.wav","no","t","p","u","yes","i","tupi","Training","alveolar","TrainingItems",1,65,165,41,NA,NA,NA,NA,NA,NA,NA,NA,NA,NA,32,"M",19,59.8813310567,NA,"American English","VSH_Exp2","2016_Mar_22_1751",NA
"Recordings/vavi.wav","yes","v","v","a","no","i","vavi","Training","bilabial","TrainingItems",1,66,166,78,NA,NA,NA,NA,NA,NA,NA,NA,NA,NA,32,"M",19,59.8813310567,NA,"American English","VSH_Exp2","2016_Mar_22_1751",NA
"Recordings/sisu.wav","no","s","s","i","no","u","sisu","Training","alveolar","TrainingItems",1,67,167,3,NA,NA,NA,NA,NA,NA,NA,NA,NA,NA,32,"M",19,59.8813310567,NA,"American English","VSH_Exp2","2016_Mar_22_1751",NA
"Recordings/dabu.wav","yes","d","b","a","yes","u","dabu","Training","alveolar","TrainingItems",1,68,168,57,NA,NA,NA,NA,NA,NA,NA,NA,NA,NA,32,"M",19,59.8813310567,NA,"American English","VSH_Exp2","2016_Mar_22_1751",NA
"Recordings/pata.wav","no","p","t","a","yes","a","pata","Training","bilabial","TrainingItems",1,69,169,73,NA,NA,NA,NA,NA,NA,NA,NA,NA,NA,32,"M",19,59.8813310567,NA,"American English","VSH_Exp2","2016_Mar_22_1751",NA
"Recordings/pita.wav","no","p","t","i","yes","a","pita","Training","bilabial","TrainingItems",1,70,170,45,NA,NA,NA,NA,NA,NA,NA,NA,NA,NA,32,"M",19,59.8813310567,NA,"American English","VSH_Exp2","2016_Mar_22_1751",NA
"Recordings/safa.wav","no","s","f","a","no","a","safa","Training","alveolar","TrainingItems",1,71,171,53,NA,NA,NA,NA,NA,NA,NA,NA,NA,NA,32,"M",19,59.8813310567,NA,"American English","VSH_Exp2","2016_Mar_22_1751",NA
"Recordings/sufu.wav","no","s","f","u","no","u","sufu","Training","alveolar","TrainingItems",1,72,172,91,NA,NA,NA,NA,NA,NA,NA,NA,NA,NA,32,"M",19,59.8813310567,NA,"American English","VSH_Exp2","2016_Mar_22_1751",NA
"Recordings/fisa.wav","no","f","s","i","no","a","fisa","Training","bilabial","TrainingItems",1,73,173,64,NA,NA,NA,NA,NA,NA,NA,NA,NA,NA,32,"M",19,59.8813310567,NA,"American English","VSH_Exp2","2016_Mar_22_1751",NA
"Recordings/sifu.wav","no","s","f","i","no","u","sifu","Training","alveolar","TrainingItems",1,74,174,35,NA,NA,NA,NA,NA,NA,NA,NA,NA,NA,32,"M",19,59.8813310567,NA,"American English","VSH_Exp2","2016_Mar_22_1751",NA
"Recordings/tupu.wav","no","t","p","u","yes","u","tupu","Training","alveolar","TrainingItems",1,75,175,70,NA,NA,NA,NA,NA,NA,NA,NA,NA,NA,32,"M",19,59.8813310567,NA,"American English","VSH_Exp2","2016_Mar_22_1751",NA
"Recordings/daba.wav","yes","d","b","a","yes","a","daba","Training","alveolar","TrainingItems",1,76,176,88,NA,NA,NA,NA,NA,NA,NA,NA,NA,NA,32,"M",19,59.8813310567,NA,"American English","VSH_Exp2","2016_Mar_22_1751",NA
"Recordings/pupu.wav","no","p","p","u","yes","u","pupu","Training","bilabial","TrainingItems",1,77,177,8,NA,NA,NA,NA,NA,NA,NA,NA,NA,NA,32,"M",19,59.8813310567,NA,"American English","VSH_Exp2","2016_Mar_22_1751",NA
"Recordings/susa.wav","no","s","s","u","no","a","susa","Training","alveolar","TrainingItems",1,78,178,31,NA,NA,NA,NA,NA,NA,NA,NA,NA,NA,32,"M",19,59.8813310567,NA,"American English","VSH_Exp2","2016_Mar_22_1751",NA
"Recordings/fifi.wav","no","f","f","i","no","i","fifi","Training","bilabial","TrainingItems",1,79,179,54,NA,NA,NA,NA,NA,NA,NA,NA,NA,NA,32,"M",19,59.8813310567,NA,"American English","VSH_Exp2","2016_Mar_22_1751",NA
"Recordings/didi.wav","yes","d","d","i","yes","i","didi","Training","alveolar","TrainingItems",1,80,180,9,NA,NA,NA,NA,NA,NA,NA,NA,NA,NA,32,"M",19,59.8813310567,NA,"American English","VSH_Exp2","2016_Mar_22_1751",NA
"Recordings/bubu.wav","yes","b","b","u","yes","u","bubu","Training","bilabial","TrainingItems",1,81,181,27,NA,NA,NA,NA,NA,NA,NA,NA,NA,NA,32,"M",19,59.8813310567,NA,"American English","VSH_Exp2","2016_Mar_22_1751",NA
"Recordings/papa.wav","no","p","p","a","yes","a","papa","Training","bilabial","TrainingItems",1,82,182,49,NA,NA,NA,NA,NA,NA,NA,NA,NA,NA,32,"M",19,59.8813310567,NA,"American English","VSH_Exp2","2016_Mar_22_1751",NA
"Recordings/bidi.wav","yes","b","d","i","yes","i","bidi","Training","bilabial","TrainingItems",1,83,183,29,NA,NA,NA,NA,NA,NA,NA,NA,NA,NA,32,"M",19,59.8813310567,NA,"American English","VSH_Exp2","2016_Mar_22_1751",NA
"Recordings/tapu.wav","no","t","p","a","yes","u","tapu","Training","alveolar","TrainingItems",1,84,184,14,NA,NA,NA,NA,NA,NA,NA,NA,NA,NA,32,"M",19,59.8813310567,NA,"American English","VSH_Exp2","2016_Mar_22_1751",NA
"Recordings/bubi.wav","yes","b","b","u","yes","i","bubi","Training","bilabial","TrainingItems",1,85,185,68,NA,NA,NA,NA,NA,NA,NA,NA,NA,NA,32,"M",19,59.8813310567,NA,"American English","VSH_Exp2","2016_Mar_22_1751",NA
"Recordings/badi.wav","yes","b","d","a","yes","i","badi","Training","bilabial","TrainingItems",1,86,186,95,NA,NA,NA,NA,NA,NA,NA,NA,NA,NA,32,"M",19,59.8813310567,NA,"American English","VSH_Exp2","2016_Mar_22_1751",NA
"Recordings/vivi.wav","yes","v","v","i","no","i","vivi","Training","bilabial","TrainingItems",1,87,187,10,NA,NA,NA,NA,NA,NA,NA,NA,NA,NA,32,"M",19,59.8813310567,NA,"American English","VSH_Exp2","2016_Mar_22_1751",NA
"Recordings/safu.wav","no","s","f","a","no","u","safu","Training","alveolar","TrainingItems",1,88,188,47,NA,NA,NA,NA,NA,NA,NA,NA,NA,NA,32,"M",19,59.8813310567,NA,"American English","VSH_Exp2","2016_Mar_22_1751",NA
"Recordings/bibu.wav","yes","b","b","i","yes","u","bibu","Training","bilabial","TrainingItems",1,89,189,77,NA,NA,NA,NA,NA,NA,NA,NA,NA,NA,32,"M",19,59.8813310567,NA,"American English","VSH_Exp2","2016_Mar_22_1751",NA
"Recordings/dudu.wav","yes","d","d","u","yes","u","dudu","Training","alveolar","TrainingItems",1,90,190,12,NA,NA,NA,NA,NA,NA,NA,NA,NA,NA,32,"M",19,59.8813310567,NA,"American English","VSH_Exp2","2016_Mar_22_1751",NA
"Recordings/budu.wav","yes","b","d","u","yes","u","budu","Training","bilabial","TrainingItems",1,91,191,34,NA,NA,NA,NA,NA,NA,NA,NA,NA,NA,32,"M",19,59.8813310567,NA,"American English","VSH_Exp2","2016_Mar_22_1751",NA
"Recordings/dudi.wav","yes","d","d","u","yes","i","dudi","Training","alveolar","TrainingItems",1,92,192,90,NA,NA,NA,NA,NA,NA,NA,NA,NA,NA,32,"M",19,59.8813310567,NA,"American English","VSH_Exp2","2016_Mar_22_1751",NA
"Recordings/fufa.wav","no","f","f","u","no","a","fufa","Training","bilabial","TrainingItems",1,93,193,24,NA,NA,NA,NA,NA,NA,NA,NA,NA,NA,32,"M",19,59.8813310567,NA,"American English","VSH_Exp2","2016_Mar_22_1751",NA
"Recordings/babi.wav","yes","b","b","a","yes","i","babi","Training","bilabial","TrainingItems",1,94,194,52,NA,NA,NA,NA,NA,NA,NA,NA,NA,NA,32,"M",19,59.8813310567,NA,"American English","VSH_Exp2","2016_Mar_22_1751",NA
"Recordings/piti.wav","no","p","t","i","yes","i","piti","Training","bilabial","TrainingItems",1,95,195,4,NA,NA,NA,NA,NA,NA,NA,NA,NA,NA,32,"M",19,59.8813310567,NA,"American English","VSH_Exp2","2016_Mar_22_1751",NA
"Recordings/tata.wav","no","t","t","a","yes","a","tata","Training","alveolar","TrainingItems",1,96,196,75,NA,NA,NA,NA,NA,NA,NA,NA,NA,NA,32,"M",19,59.8813310567,NA,"American English","VSH_Exp2","2016_Mar_22_1751",NA
"Recordings/babu.wav","yes","b","b","a","yes","u","babu","Training","bilabial","TrainingItems",1,97,197,39,NA,NA,NA,NA,NA,NA,NA,NA,NA,NA,32,"M",19,59.8813310567,NA,"American English","VSH_Exp2","2016_Mar_22_1751",NA
"Recordings/susu.wav","no","s","s","u","no","u","susu","Training","alveolar","TrainingItems",1,98,198,2,NA,NA,NA,NA,NA,NA,NA,NA,NA,NA,32,"M",19,59.8813310567,NA,"American English","VSH_Exp2","2016_Mar_22_1751",NA
"Recordings/sufa.wav","no","s","f","u","no","a","sufa","Training","alveolar","TrainingItems",1,99,199,69,NA,NA,NA,NA,NA,NA,NA,NA,NA,NA,32,"M",19,59.8813310567,NA,"American English","VSH_Exp2","2016_Mar_22_1751",NA
NA,NA,NA,NA,NA,NA,NA,NA,NA,NA,NA,NA,NA,NA,NA,NA,NA,NA,NA,NA,NA,"space",5.42428612709,NA,NA,32,"M",19,59.8813310567,NA,"American English","VSH_Exp2","2016_Mar_22_1751",NA
"Recordings/sudi.wav","no","s","d","u","no","i","sudi","Controls","alveolar","NoPatternControls",NA,NA,NA,NA,0,0,0,56,NA,NA,NA,NA,"Yes",5.057,32,"M",19,59.8813310567,NA,"American English","VSH_Exp2","2016_Mar_22_1751",NA
"Recordings/fisa.wav","no","f","s","i","no","a","fisa","Test","bilabial","OldTestStimuli",NA,NA,NA,NA,0,1,1,7,NA,NA,NA,NA,"Yes",4.073,32,"M",19,59.8813310567,NA,"American English","VSH_Exp2","2016_Mar_22_1751",NA
"Recordings/futi.wav","no","f","t","u","no","i","futi","Controls","bilabial","VoicingControls",NA,NA,NA,NA,0,2,2,49,NA,NA,NA,NA,"Yes",2.171,32,"M",19,59.8813310567,NA,"American English","VSH_Exp2","2016_Mar_22_1751",NA
"Recordings/tatu.wav","no","t","t","a","yes","u","tatu","Test","alveolar","NewWordTestStimuli",NA,NA,NA,NA,0,3,3,25,NA,NA,NA,NA,"Yes",1.537,32,"M",19,59.8813310567,NA,"American English","VSH_Exp2","2016_Mar_22_1751",NA
"Recordings/safa.wav","no","s","f","a","no","a","safa","Test","alveolar","OldTestStimuli",NA,NA,NA,NA,0,4,4,8,NA,NA,NA,NA,"Yes",1.103,32,"M",19,59.8813310567,NA,"American English","VSH_Exp2","2016_Mar_22_1751",NA
"Recordings/vuzi.wav","yes","v","z","u","no","i","vuzi","Test","bilabial","NewConsTestStimuli",NA,NA,NA,NA,0,5,5,14,NA,NA,NA,NA,"Yes",1.02,32,"M",19,59.8813310567,NA,"American English","VSH_Exp2","2016_Mar_22_1751",NA
"Recordings/fuza.wav","no","f","z","u","no","a","fuza","Controls","bilabial","StopControls",NA,NA,NA,NA,0,6,6,39,NA,NA,NA,NA,"No",2.037,32,"M",19,59.8813310567,NA,"American English","VSH_Exp2","2016_Mar_22_1751",NA
"Recordings/tubi.wav","no","t","b","u","yes","i","tubi","Controls","alveolar","StopControls",NA,NA,NA,NA,0,7,7,37,NA,NA,NA,NA,"No",3.405,32,"M",19,59.8813310567,NA,"American English","VSH_Exp2","2016_Mar_22_1751",NA
"Recordings/zidi.wav","yes","z","d","i","no","i","zidi","Controls","alveolar","VoicingControls",NA,NA,NA,NA,0,8,8,45,NA,NA,NA,NA,"Yes",1.688,32,"M",19,59.8813310567,NA,"American English","VSH_Exp2","2016_Mar_22_1751",NA
"Recordings/vizi.wav","yes","v","z","i","no","i","vizi","Test","bilabial","NewConsTestStimuli",NA,NA,NA,NA,0,9,9,18,NA,NA,NA,NA,"Yes",0.837,32,"M",19,59.8813310567,NA,"American English","VSH_Exp2","2016_Mar_22_1751",NA
"Recordings/savi.wav","no","s","v","a","no","i","savi","Controls","alveolar","StopControls",NA,NA,NA,NA,0,10,10,38,NA,NA,NA,NA,"No",1.936,32,"M",19,59.8813310567,NA,"American English","VSH_Exp2","2016_Mar_22_1751",NA
"Recordings/fasu.wav","no","f","s","a","no","u","fasu","Test","bilabial","NewWordTestStimuli",NA,NA,NA,NA,0,11,11,21,NA,NA,NA,NA,"Yes",1.603,32,"M",19,59.8813310567,NA,"American English","VSH_Exp2","2016_Mar_22_1751",NA
"Recordings/zuvi.wav","yes","z","v","u","no","i","zuvi","Test","alveolar","NewConsTestStimuli",NA,NA,NA,NA,0,12,12,16,NA,NA,NA,NA,"Yes",1.119,32,"M",19,59.8813310567,NA,"American English","VSH_Exp2","2016_Mar_22_1751",NA
"Recordings/vazu.wav","yes","v","z","a","no","u","vazu","Test","bilabial","NewConsTestStimuli",NA,NA,NA,NA,0,13,13,10,NA,NA,NA,NA,"Yes",1.17,32,"M",19,59.8813310567,NA,"American English","VSH_Exp2","2016_Mar_22_1751",NA
"Recordings/zivi.wav","yes","z","v","i","no","i","zivi","Test","alveolar","NewConsTestStimuli",NA,NA,NA,NA,0,14,14,17,NA,NA,NA,NA,"Yes",0.753,32,"M",19,59.8813310567,NA,"American English","VSH_Exp2","2016_Mar_22_1751",NA
"Recordings/pati.wav","no","p","t","a","yes","i","pati","Test","bilabial","OldTestStimuli",NA,NA,NA,NA,0,15,15,4,NA,NA,NA,NA,"Yes",0.886,32,"M",19,59.8813310567,NA,"American English","VSH_Exp2","2016_Mar_22_1751",NA
"Recordings/fifa.wav","no","f","f","i","no","a","fifa","Test","bilabial","OldTestStimuli",NA,NA,NA,NA,0,16,16,2,NA,NA,NA,NA,"Yes",0.987,32,"M",19,59.8813310567,NA,"American English","VSH_Exp2","2016_Mar_22_1751",NA
"Recordings/dubi.wav","yes","d","b","u","yes","i","dubi","Test","alveolar","OldTestStimuli",NA,NA,NA,NA,0,17,17,1,NA,NA,NA,NA,"Yes",0.737,32,"M",19,59.8813310567,NA,"American English","VSH_Exp2","2016_Mar_22_1751",NA
"Recordings/suva.wav","no","s","v","u","no","a","suva","Controls","alveolar","StopControls",NA,NA,NA,NA,0,18,18,36,NA,NA,NA,NA,"Yes",2.889,32,"M",19,59.8813310567,NA,"American English","VSH_Exp2","2016_Mar_22_1751",NA
"Recordings/sipu.wav","no","s","p","i","no","u","sipu","Controls","alveolar","VoicingControls",NA,NA,NA,NA,0,19,19,42,NA,NA,NA,NA,"Yes",1.036,32,"M",19,59.8813310567,NA,"American English","VSH_Exp2","2016_Mar_22_1751",NA
"Recordings/sapu.wav","no","s","p","a","no","u","sapu","Controls","alveolar","VoicingControls",NA,NA,NA,NA,0,20,20,48,NA,NA,NA,NA,"Yes",0.854,32,"M",19,59.8813310567,NA,"American English","VSH_Exp2","2016_Mar_22_1751",NA
"Recordings/suza.wav","no","s","z","u","no","a","suza","Controls","alveolar","StopControls",NA,NA,NA,NA,0,21,21,34,NA,NA,NA,NA,"No",1.821,32,"M",19,59.8813310567,NA,"American English","VSH_Exp2","2016_Mar_22_1751",NA
"Recordings/sufi.wav","no","s","f","u","no","i","sufi","Test","alveolar","OldTestStimuli",NA,NA,NA,NA,0,22,22,9,NA,NA,NA,NA,"Yes",0.953,32,"M",19,59.8813310567,NA,"American English","VSH_Exp2","2016_Mar_22_1751",NA
"Recordings/zipa.wav","yes","z","p","i","no","a","zipa","Controls","alveolar","NoPatternControls",NA,NA,NA,NA,0,23,23,55,NA,NA,NA,NA,"Yes",1.104,32,"M",19,59.8813310567,NA,"American English","VSH_Exp2","2016_Mar_22_1751",NA
"Recordings/vizu.wav","yes","v","z","i","no","u","vizu","Test","bilabial","NewConsTestStimuli",NA,NA,NA,NA,0,24,24,11,NA,NA,NA,NA,"Yes",0.735,32,"M",19,59.8813310567,NA,"American English","VSH_Exp2","2016_Mar_22_1751",NA
"Recordings/tudu.wav","no","t","d","u","yes","u","tudu","Controls","alveolar","StopControls",NA,NA,NA,NA,0,25,25,33,NA,NA,NA,NA,"Yes",1.069,32,"M",19,59.8813310567,NA,"American English","VSH_Exp2","2016_Mar_22_1751",NA
"Recordings/tizu.wav","no","t","z","i","yes","u","tizu","Controls","alveolar","NoPatternControls",NA,NA,NA,NA,0,26,26,57,NA,NA,NA,NA,"Yes",1.088,32,"M",19,59.8813310567,NA,"American English","VSH_Exp2","2016_Mar_22_1751",NA
"Recordings/bafi.wav","yes","b","f","a","yes","i","bafi","Controls","bilabial","NoPatternControls",NA,NA,NA,NA,0,27,27,50,NA,NA,NA,NA,"Yes",0.921,32,"M",19,59.8813310567,NA,"American English","VSH_Exp2","2016_Mar_22_1751",NA
"Recordings/batu.wav","yes","b","t","a","yes","u","batu","Controls","bilabial","StopControls",NA,NA,NA,NA,0,28,28,30,NA,NA,NA,NA,"No",3.14,32,"M",19,59.8813310567,NA,"American English","VSH_Exp2","2016_Mar_22_1751",NA
"Recordings/pipu.wav","no","p","p","i","yes","u","pipu","Test","bilabial","NewWordTestStimuli",NA,NA,NA,NA,0,29,29,24,NA,NA,NA,NA,"Yes",1.236,32,"M",19,59.8813310567,NA,"American English","VSH_Exp2","2016_Mar_22_1751",NA
"Recordings/zava.wav","yes","z","v","a","no","a","zava","Test","alveolar","NewConsTestStimuli",NA,NA,NA,NA,0,30,30,12,NA,NA,NA,NA,"Yes",0.853,32,"M",19,59.8813310567,NA,"American English","VSH_Exp2","2016_Mar_22_1751",NA
"Recordings/papa.wav","no","p","p","a","yes","a","papa","Test","bilabial","OldTestStimuli",NA,NA,NA,NA,0,31,31,6,NA,NA,NA,NA,"Yes",0.686,32,"M",19,59.8813310567,NA,"American English","VSH_Exp2","2016_Mar_22_1751",NA
"Recordings/zisi.wav","yes","z","s","i","no","i","zisi","Controls","alveolar","StopControls",NA,NA,NA,NA,0,32,32,35,NA,NA,NA,NA,"Yes",1.354,32,"M",19,59.8813310567,NA,"American English","VSH_Exp2","2016_Mar_22_1751",NA
"Recordings/fifu.wav","no","f","f","i","no","u","fifu","Test","bilabial","NewWordTestStimuli",NA,NA,NA,NA,0,33,33,26,NA,NA,NA,NA,"Yes",0.736,32,"M",19,59.8813310567,NA,"American English","VSH_Exp2","2016_Mar_22_1751",NA
"Recordings/siba.wav","no","s","b","i","no","a","siba","Controls","alveolar","NoPatternControls",NA,NA,NA,NA,0,34,34,52,NA,NA,NA,NA,"No",1.771,32,"M",19,59.8813310567,NA,"American English","VSH_Exp2","2016_Mar_22_1751",NA
"Recordings/bubi.wav","yes","b","b","u","yes","i","bubi","Test","bilabial","OldTestStimuli",NA,NA,NA,NA,0,35,35,3,NA,NA,NA,NA,"Yes",1.202,32,"M",19,59.8813310567,NA,"American English","VSH_Exp2","2016_Mar_22_1751",NA
"Recordings/suti.wav","no","s","t","u","no","i","suti","Controls","alveolar","VoicingControls",NA,NA,NA,NA,0,36,36,44,NA,NA,NA,NA,"Yes",0.72,32,"M",19,59.8813310567,NA,"American English","VSH_Exp2","2016_Mar_22_1751",NA
"Recordings/bazu.wav","yes","b","z","a","yes","u","bazu","Controls","bilabial","VoicingControls",NA,NA,NA,NA,0,37,37,40,NA,NA,NA,NA,"No",2.554,32,"M",19,59.8813310567,NA,"American English","VSH_Exp2","2016_Mar_22_1751",NA
"Recordings/dadu.wav","yes","d","d","a","yes","u","dadu","Test","alveolar","NewWordTestStimuli",NA,NA,NA,NA,0,38,38,29,NA,NA,NA,NA,"Yes",1.086,32,"M",19,59.8813310567,NA,"American English","VSH_Exp2","2016_Mar_22_1751",NA
"Recordings/zavi.wav","yes","z","v","a","no","i","zavi","Test","alveolar","NewConsTestStimuli",NA,NA,NA,NA,0,39,39,13,NA,NA,NA,NA,"Yes",1.803,32,"M",19,59.8813310567,NA,"American English","VSH_Exp2","2016_Mar_22_1751",NA
"Recordings/pifi.wav","no","p","f","i","yes","i","pifi","Controls","bilabial","VoicingControls",NA,NA,NA,NA,0,40,40,41,NA,NA,NA,NA,"Yes",0.854,32,"M",19,59.8813310567,NA,"American English","VSH_Exp2","2016_Mar_22_1751",NA
"Recordings/tiza.wav","no","t","z","i","yes","a","tiza","Controls","alveolar","NoPatternControls",NA,NA,NA,NA,0,41,41,53,NA,NA,NA,NA,"No",3.456,32,"M",19,59.8813310567,NA,"American English","VSH_Exp2","2016_Mar_22_1751",NA
"Recordings/buda.wav","yes","b","d","u","yes","a","buda","Test","bilabial","NewWordTestStimuli",NA,NA,NA,NA,0,42,42,20,NA,NA,NA,NA,"No",1.938,32,"M",19,59.8813310567,NA,"American English","VSH_Exp2","2016_Mar_22_1751",NA
"Recordings/ziva.wav","yes","z","v","i","no","a","ziva","Test","alveolar","NewConsTestStimuli",NA,NA,NA,NA,0,43,43,15,NA,NA,NA,NA,"Yes",0.854,32,"M",19,59.8813310567,NA,"American English","VSH_Exp2","2016_Mar_22_1751",NA
"Recordings/fudi.wav","no","f","d","u","no","i","fudi","Controls","bilabial","NoPatternControls",NA,NA,NA,NA,0,44,44,59,NA,NA,NA,NA,"Yes",0.82,32,"M",19,59.8813310567,NA,"American English","VSH_Exp2","2016_Mar_22_1751",NA
"Recordings/sasu.wav","no","s","s","a","no","u","sasu","Test","alveolar","NewWordTestStimuli",NA,NA,NA,NA,0,45,45,22,NA,NA,NA,NA,"Yes",0.736,32,"M",19,59.8813310567,NA,"American English","VSH_Exp2","2016_Mar_22_1751",NA
"Recordings/sidi.wav","no","s","d","i","no","i","sidi","Controls","alveolar","NoPatternControls",NA,NA,NA,NA,0,46,46,58,NA,NA,NA,NA,"No",3.389,32,"M",19,59.8813310567,NA,"American English","VSH_Exp2","2016_Mar_22_1751",NA
"Recordings/sivi.wav","no","s","v","i","no","i","sivi","Controls","alveolar","StopControls",NA,NA,NA,NA,0,47,47,32,NA,NA,NA,NA,"Yes",2.17,32,"M",19,59.8813310567,NA,"American English","VSH_Exp2","2016_Mar_22_1751",NA
"Recordings/sidu.wav","no","s","d","i","no","u","sidu","Controls","alveolar","NoPatternControls",NA,NA,NA,NA,0,48,48,54,NA,NA,NA,NA,"Yes",0.903,32,"M",19,59.8813310567,NA,"American English","VSH_Exp2","2016_Mar_22_1751",NA
"Recordings/vaza.wav","yes","v","z","a","no","a","vaza","Test","bilabial","NewConsTestStimuli",NA,NA,NA,NA,0,49,49,19,NA,NA,NA,NA,"Yes",0.802,32,"M",19,59.8813310567,NA,"American English","VSH_Exp2","2016_Mar_22_1751",NA
"Recordings/pizi.wav","no","p","z","i","yes","i","pizi","Controls","bilabial","NoPatternControls",NA,NA,NA,NA,0,50,50,51,NA,NA,NA,NA,"Yes",0.952,32,"M",19,59.8813310567,NA,"American English","VSH_Exp2","2016_Mar_22_1751",NA
"Recordings/tapi.wav","no","t","p","a","yes","i","tapi","Test","alveolar","NewWordTestStimuli",NA,NA,NA,NA,0,51,51,28,NA,NA,NA,NA,"Yes",0.653,32,"M",19,59.8813310567,NA,"American English","VSH_Exp2","2016_Mar_22_1751",NA
"Recordings/tisi.wav","no","t","s","i","yes","i","tisi","Controls","alveolar","VoicingControls",NA,NA,NA,NA,0,52,52,47,NA,NA,NA,NA,"Yes",0.938,32,"M",19,59.8813310567,NA,"American English","VSH_Exp2","2016_Mar_22_1751",NA
"Recordings/sasi.wav","no","s","s","a","no","i","sasi","Test","alveolar","NewWordTestStimuli",NA,NA,NA,NA,0,53,53,27,NA,NA,NA,NA,"No",3.489,32,"M",19,59.8813310567,NA,"American English","VSH_Exp2","2016_Mar_22_1751",NA
"Recordings/sisu.wav","no","s","s","i","no","u","sisu","Test","alveolar","OldTestStimuli",NA,NA,NA,NA,0,54,54,0,NA,NA,NA,NA,"Yes",1.406,32,"M",19,59.8813310567,NA,"American English","VSH_Exp2","2016_Mar_22_1751",NA
"Recordings/supi.wav","no","s","p","u","no","i","supi","Controls","alveolar","VoicingControls",NA,NA,NA,NA,0,55,55,46,NA,NA,NA,NA,"Yes",0.787,32,"M",19,59.8813310567,NA,"American English","VSH_Exp2","2016_Mar_22_1751",NA
"Recordings/sisi.wav","no","s","s","i","no","i","sisi","Test","alveolar","OldTestStimuli",NA,NA,NA,NA,0,56,56,5,NA,NA,NA,NA,"Yes",0.754,32,"M",19,59.8813310567,NA,"American English","VSH_Exp2","2016_Mar_22_1751",NA
"Recordings/tufu.wav","no","t","f","u","yes","u","tufu","Controls","alveolar","VoicingControls",NA,NA,NA,NA,0,57,57,43,NA,NA,NA,NA,"Yes",0.955,32,"M",19,59.8813310567,NA,"American English","VSH_Exp2","2016_Mar_22_1751",NA
"Recordings/pibi.wav","no","p","b","i","yes","i","pibi","Controls","bilabial","StopControls",NA,NA,NA,NA,0,58,58,31,NA,NA,NA,NA,"No",1.338,32,"M",19,59.8813310567,NA,"American English","VSH_Exp2","2016_Mar_22_1751",NA
"Recordings/titi.wav","no","t","t","i","yes","i","titi","Test","alveolar","NewWordTestStimuli",NA,NA,NA,NA,0,59,59,23,NA,NA,NA,NA,"Yes",0.97,32,"M",19,59.8813310567,NA,"American English","VSH_Exp2","2016_Mar_22_1751",NA
