"SOUND","VOICING","SEGMENT","SEGMENT3","SEGMENT2","STOP","SEGMENT4","STIMULUS","GENERAL_TYPE","PLACE","TYPE","trials.thisRepN","trials.thisTrialN","trials.thisN","trials.thisIndex","trials_2.thisRepN","trials_2.thisTrialN","trials_2.thisN","trials_2.thisIndex","SpaceBar.keys","SpaceBar.rt","key_resp_2.keys","key_resp_2.rt","rating.response","rating.rt","participant","Gender","Age","frameRate","OtherLanguages","NativeLanguage","expName","date","X34"
NA,NA,NA,NA,NA,NA,NA,NA,NA,NA,NA,NA,NA,NA,NA,NA,NA,NA,NA,"space",4.02195906639,NA,NA,NA,NA,33,FALSE,19,60.9306872873,"French","American English","VSH_Exp2","2016_Mar_22_1751",NA
"Recordings/zivi.wav","yes","z","v","i","no","i","zivi","Training","alveolar","TrainingItems",0,0,0,3,NA,NA,NA,NA,NA,NA,NA,NA,NA,NA,33,FALSE,19,60.9306872873,"French","American English","VSH_Exp2","2016_Mar_22_1751",NA
"Recordings/pipu.wav","no","p","p","i","yes","u","pipu","Training","bilabial","TrainingItems",0,1,1,43,NA,NA,NA,NA,NA,NA,NA,NA,NA,NA,33,FALSE,19,60.9306872873,"French","American English","VSH_Exp2","2016_Mar_22_1751",NA
"Recordings/tupi.wav","no","t","p","u","yes","i","tupi","Training","alveolar","TrainingItems",0,2,2,16,NA,NA,NA,NA,NA,NA,NA,NA,NA,NA,33,FALSE,19,60.9306872873,"French","American English","VSH_Exp2","2016_Mar_22_1751",NA
"Recordings/tapu.wav","no","t","p","a","yes","u","tapu","Training","alveolar","TrainingItems",0,3,3,73,NA,NA,NA,NA,NA,NA,NA,NA,NA,NA,33,FALSE,19,60.9306872873,"French","American English","VSH_Exp2","2016_Mar_22_1751",NA
"Recordings/vizu.wav","yes","v","z","i","no","u","vizu","Training","bilabial","TrainingItems",0,4,4,40,NA,NA,NA,NA,NA,NA,NA,NA,NA,NA,33,FALSE,19,60.9306872873,"French","American English","VSH_Exp2","2016_Mar_22_1751",NA
"Recordings/vuvi.wav","yes","v","v","u","no","i","vuvi","Training","bilabial","TrainingItems",0,5,5,34,NA,NA,NA,NA,NA,NA,NA,NA,NA,NA,33,FALSE,19,60.9306872873,"French","American English","VSH_Exp2","2016_Mar_22_1751",NA
"Recordings/badi.wav","yes","b","d","a","yes","i","badi","Training","bilabial","TrainingItems",0,6,6,54,NA,NA,NA,NA,NA,NA,NA,NA,NA,NA,33,FALSE,19,60.9306872873,"French","American English","VSH_Exp2","2016_Mar_22_1751",NA
"Recordings/vazu.wav","yes","v","z","a","no","u","vazu","Training","bilabial","TrainingItems",0,7,7,0,NA,NA,NA,NA,NA,NA,NA,NA,NA,NA,33,FALSE,19,60.9306872873,"French","American English","VSH_Exp2","2016_Mar_22_1751",NA
"Recordings/tupa.wav","no","t","p","u","yes","a","tupa","Training","alveolar","TrainingItems",0,8,8,19,NA,NA,NA,NA,NA,NA,NA,NA,NA,NA,33,FALSE,19,60.9306872873,"French","American English","VSH_Exp2","2016_Mar_22_1751",NA
"Recordings/zavi.wav","yes","z","v","a","no","i","zavi","Training","alveolar","TrainingItems",0,9,9,18,NA,NA,NA,NA,NA,NA,NA,NA,NA,NA,33,FALSE,19,60.9306872873,"French","American English","VSH_Exp2","2016_Mar_22_1751",NA
"Recordings/dida.wav","yes","d","d","i","yes","a","dida","Training","alveolar","TrainingItems",0,10,10,25,NA,NA,NA,NA,NA,NA,NA,NA,NA,NA,33,FALSE,19,60.9306872873,"French","American English","VSH_Exp2","2016_Mar_22_1751",NA
"Recordings/tutu.wav","no","t","t","u","yes","u","tutu","Training","alveolar","TrainingItems",0,11,11,6,NA,NA,NA,NA,NA,NA,NA,NA,NA,NA,33,FALSE,19,60.9306872873,"French","American English","VSH_Exp2","2016_Mar_22_1751",NA
"Recordings/buda.wav","yes","b","d","u","yes","a","buda","Training","bilabial","TrainingItems",0,12,12,13,NA,NA,NA,NA,NA,NA,NA,NA,NA,NA,33,FALSE,19,60.9306872873,"French","American English","VSH_Exp2","2016_Mar_22_1751",NA
"Recordings/didu.wav","yes","d","d","i","yes","u","didu","Training","alveolar","TrainingItems",0,13,13,82,NA,NA,NA,NA,NA,NA,NA,NA,NA,NA,33,FALSE,19,60.9306872873,"French","American English","VSH_Exp2","2016_Mar_22_1751",NA
"Recordings/sasa.wav","no","s","s","a","no","a","sasa","Training","alveolar","TrainingItems",0,14,14,39,NA,NA,NA,NA,NA,NA,NA,NA,NA,NA,33,FALSE,19,60.9306872873,"French","American English","VSH_Exp2","2016_Mar_22_1751",NA
"Recordings/fifi.wav","no","f","f","i","no","i","fifi","Training","bilabial","TrainingItems",0,15,15,26,NA,NA,NA,NA,NA,NA,NA,NA,NA,NA,33,FALSE,19,60.9306872873,"French","American English","VSH_Exp2","2016_Mar_22_1751",NA
"Recordings/fufu.wav","no","f","f","u","no","u","fufu","Training","bilabial","TrainingItems",0,16,16,63,NA,NA,NA,NA,NA,NA,NA,NA,NA,NA,33,FALSE,19,60.9306872873,"French","American English","VSH_Exp2","2016_Mar_22_1751",NA
"Recordings/ziva.wav","yes","z","v","i","no","a","ziva","Training","alveolar","TrainingItems",0,17,17,66,NA,NA,NA,NA,NA,NA,NA,NA,NA,NA,33,FALSE,19,60.9306872873,"French","American English","VSH_Exp2","2016_Mar_22_1751",NA
"Recordings/dibi.wav","yes","d","b","i","yes","i","dibi","Training","alveolar","TrainingItems",0,18,18,4,NA,NA,NA,NA,NA,NA,NA,NA,NA,NA,33,FALSE,19,60.9306872873,"French","American English","VSH_Exp2","2016_Mar_22_1751",NA
"Recordings/dubu.wav","yes","d","b","u","yes","u","dubu","Training","alveolar","TrainingItems",0,19,19,22,NA,NA,NA,NA,NA,NA,NA,NA,NA,NA,33,FALSE,19,60.9306872873,"French","American English","VSH_Exp2","2016_Mar_22_1751",NA
"Recordings/papi.wav","no","p","p","a","yes","i","papi","Training","bilabial","TrainingItems",0,20,20,64,NA,NA,NA,NA,NA,NA,NA,NA,NA,NA,33,FALSE,19,60.9306872873,"French","American English","VSH_Exp2","2016_Mar_22_1751",NA
"Recordings/fafi.wav","no","f","f","a","no","i","fafi","Training","bilabial","TrainingItems",0,21,21,69,NA,NA,NA,NA,NA,NA,NA,NA,NA,NA,33,FALSE,19,60.9306872873,"French","American English","VSH_Exp2","2016_Mar_22_1751",NA
"Recordings/vazi.wav","yes","v","z","a","no","i","vazi","Training","bilabial","TrainingItems",0,22,22,92,NA,NA,NA,NA,NA,NA,NA,NA,NA,NA,33,FALSE,19,60.9306872873,"French","American English","VSH_Exp2","2016_Mar_22_1751",NA
"Recordings/badu.wav","yes","b","d","a","yes","u","badu","Training","bilabial","TrainingItems",0,23,23,97,NA,NA,NA,NA,NA,NA,NA,NA,NA,NA,33,FALSE,19,60.9306872873,"French","American English","VSH_Exp2","2016_Mar_22_1751",NA
"Recordings/susu.wav","no","s","s","u","no","u","susu","Training","alveolar","TrainingItems",0,24,24,38,NA,NA,NA,NA,NA,NA,NA,NA,NA,NA,33,FALSE,19,60.9306872873,"French","American English","VSH_Exp2","2016_Mar_22_1751",NA
"Recordings/dadu.wav","yes","d","d","a","yes","u","dadu","Training","alveolar","TrainingItems",0,25,25,67,NA,NA,NA,NA,NA,NA,NA,NA,NA,NA,33,FALSE,19,60.9306872873,"French","American English","VSH_Exp2","2016_Mar_22_1751",NA
"Recordings/tapa.wav","no","t","p","a","yes","a","tapa","Training","alveolar","TrainingItems",0,26,26,9,NA,NA,NA,NA,NA,NA,NA,NA,NA,NA,33,FALSE,19,60.9306872873,"French","American English","VSH_Exp2","2016_Mar_22_1751",NA
"Recordings/bibu.wav","yes","b","b","i","yes","u","bibu","Training","bilabial","TrainingItems",0,27,27,33,NA,NA,NA,NA,NA,NA,NA,NA,NA,NA,33,FALSE,19,60.9306872873,"French","American English","VSH_Exp2","2016_Mar_22_1751",NA
"Recordings/vuzi.wav","yes","v","z","u","no","i","vuzi","Training","bilabial","TrainingItems",0,28,28,17,NA,NA,NA,NA,NA,NA,NA,NA,NA,NA,33,FALSE,19,60.9306872873,"French","American English","VSH_Exp2","2016_Mar_22_1751",NA
"Recordings/bidi.wav","yes","b","d","i","yes","i","bidi","Training","bilabial","TrainingItems",0,29,29,1,NA,NA,NA,NA,NA,NA,NA,NA,NA,NA,33,FALSE,19,60.9306872873,"French","American English","VSH_Exp2","2016_Mar_22_1751",NA
"Recordings/tipa.wav","no","t","p","i","yes","a","tipa","Training","alveolar","TrainingItems",0,30,30,88,NA,NA,NA,NA,NA,NA,NA,NA,NA,NA,33,FALSE,19,60.9306872873,"French","American English","VSH_Exp2","2016_Mar_22_1751",NA
"Recordings/fafu.wav","no","f","f","a","no","u","fafu","Training","bilabial","TrainingItems",0,31,31,50,NA,NA,NA,NA,NA,NA,NA,NA,NA,NA,33,FALSE,19,60.9306872873,"French","American English","VSH_Exp2","2016_Mar_22_1751",NA
"Recordings/fafa.wav","no","f","f","a","no","a","fafa","Training","bilabial","TrainingItems",0,32,32,32,NA,NA,NA,NA,NA,NA,NA,NA,NA,NA,33,FALSE,19,60.9306872873,"French","American English","VSH_Exp2","2016_Mar_22_1751",NA
"Recordings/pati.wav","no","p","t","a","yes","i","pati","Training","bilabial","TrainingItems",0,33,33,98,NA,NA,NA,NA,NA,NA,NA,NA,NA,NA,33,FALSE,19,60.9306872873,"French","American English","VSH_Exp2","2016_Mar_22_1751",NA
"Recordings/dubi.wav","yes","d","b","u","yes","i","dubi","Training","alveolar","TrainingItems",0,34,34,42,NA,NA,NA,NA,NA,NA,NA,NA,NA,NA,33,FALSE,19,60.9306872873,"French","American English","VSH_Exp2","2016_Mar_22_1751",NA
"Recordings/zivu.wav","yes","z","v","i","no","u","zivu","Training","alveolar","TrainingItems",0,35,35,68,NA,NA,NA,NA,NA,NA,NA,NA,NA,NA,33,FALSE,19,60.9306872873,"French","American English","VSH_Exp2","2016_Mar_22_1751",NA
"Recordings/budi.wav","yes","b","d","u","yes","i","budi","Training","bilabial","TrainingItems",0,36,36,11,NA,NA,NA,NA,NA,NA,NA,NA,NA,NA,33,FALSE,19,60.9306872873,"French","American English","VSH_Exp2","2016_Mar_22_1751",NA
"Recordings/budu.wav","yes","b","d","u","yes","u","budu","Training","bilabial","TrainingItems",0,37,37,52,NA,NA,NA,NA,NA,NA,NA,NA,NA,NA,33,FALSE,19,60.9306872873,"French","American English","VSH_Exp2","2016_Mar_22_1751",NA
"Recordings/tuta.wav","no","t","t","u","yes","a","tuta","Training","alveolar","TrainingItems",0,38,38,95,NA,NA,NA,NA,NA,NA,NA,NA,NA,NA,33,FALSE,19,60.9306872873,"French","American English","VSH_Exp2","2016_Mar_22_1751",NA
"Recordings/daba.wav","yes","d","b","a","yes","a","daba","Training","alveolar","TrainingItems",0,39,39,53,NA,NA,NA,NA,NA,NA,NA,NA,NA,NA,33,FALSE,19,60.9306872873,"French","American English","VSH_Exp2","2016_Mar_22_1751",NA
"Recordings/pitu.wav","no","p","t","i","yes","u","pitu","Training","bilabial","TrainingItems",0,40,40,14,NA,NA,NA,NA,NA,NA,NA,NA,NA,NA,33,FALSE,19,60.9306872873,"French","American English","VSH_Exp2","2016_Mar_22_1751",NA
"Recordings/pata.wav","no","p","t","a","yes","a","pata","Training","bilabial","TrainingItems",0,41,41,76,NA,NA,NA,NA,NA,NA,NA,NA,NA,NA,33,FALSE,19,60.9306872873,"French","American English","VSH_Exp2","2016_Mar_22_1751",NA
"Recordings/viva.wav","yes","v","v","i","no","a","viva","Training","bilabial","TrainingItems",0,42,42,47,NA,NA,NA,NA,NA,NA,NA,NA,NA,NA,33,FALSE,19,60.9306872873,"French","American English","VSH_Exp2","2016_Mar_22_1751",NA
"Recordings/fufa.wav","no","f","f","u","no","a","fufa","Training","bilabial","TrainingItems",0,43,43,21,NA,NA,NA,NA,NA,NA,NA,NA,NA,NA,33,FALSE,19,60.9306872873,"French","American English","VSH_Exp2","2016_Mar_22_1751",NA
"Recordings/pipa.wav","no","p","p","i","yes","a","pipa","Training","bilabial","TrainingItems",0,44,44,86,NA,NA,NA,NA,NA,NA,NA,NA,NA,NA,33,FALSE,19,60.9306872873,"French","American English","VSH_Exp2","2016_Mar_22_1751",NA
"Recordings/ziza.wav","yes","z","z","i","no","a","ziza","Training","alveolar","TrainingItems",0,45,45,35,NA,NA,NA,NA,NA,NA,NA,NA,NA,NA,33,FALSE,19,60.9306872873,"French","American English","VSH_Exp2","2016_Mar_22_1751",NA
"Recordings/pupa.wav","no","p","p","u","yes","a","pupa","Training","bilabial","TrainingItems",0,46,46,90,NA,NA,NA,NA,NA,NA,NA,NA,NA,NA,33,FALSE,19,60.9306872873,"French","American English","VSH_Exp2","2016_Mar_22_1751",NA
"Recordings/zuza.wav","yes","z","z","u","no","a","zuza","Training","alveolar","TrainingItems",0,47,47,30,NA,NA,NA,NA,NA,NA,NA,NA,NA,NA,33,FALSE,19,60.9306872873,"French","American English","VSH_Exp2","2016_Mar_22_1751",NA
"Recordings/zazi.wav","yes","z","z","a","no","i","zazi","Training","alveolar","TrainingItems",0,48,48,60,NA,NA,NA,NA,NA,NA,NA,NA,NA,NA,33,FALSE,19,60.9306872873,"French","American English","VSH_Exp2","2016_Mar_22_1751",NA
"Recordings/bada.wav","yes","b","d","a","yes","a","bada","Training","bilabial","TrainingItems",0,49,49,85,NA,NA,NA,NA,NA,NA,NA,NA,NA,NA,33,FALSE,19,60.9306872873,"French","American English","VSH_Exp2","2016_Mar_22_1751",NA
"Recordings/zuvi.wav","yes","z","v","u","no","i","zuvi","Training","alveolar","TrainingItems",0,50,50,74,NA,NA,NA,NA,NA,NA,NA,NA,NA,NA,33,FALSE,19,60.9306872873,"French","American English","VSH_Exp2","2016_Mar_22_1751",NA
"Recordings/buba.wav","yes","b","b","u","yes","a","buba","Training","bilabial","TrainingItems",0,51,51,27,NA,NA,NA,NA,NA,NA,NA,NA,NA,NA,33,FALSE,19,60.9306872873,"French","American English","VSH_Exp2","2016_Mar_22_1751",NA
"Recordings/pupu.wav","no","p","p","u","yes","u","pupu","Training","bilabial","TrainingItems",0,52,52,84,NA,NA,NA,NA,NA,NA,NA,NA,NA,NA,33,FALSE,19,60.9306872873,"French","American English","VSH_Exp2","2016_Mar_22_1751",NA
"Recordings/babi.wav","yes","b","b","a","yes","i","babi","Training","bilabial","TrainingItems",0,53,53,96,NA,NA,NA,NA,NA,NA,NA,NA,NA,NA,33,FALSE,19,60.9306872873,"French","American English","VSH_Exp2","2016_Mar_22_1751",NA
"Recordings/piti.wav","no","p","t","i","yes","i","piti","Training","bilabial","TrainingItems",0,54,54,55,NA,NA,NA,NA,NA,NA,NA,NA,NA,NA,33,FALSE,19,60.9306872873,"French","American English","VSH_Exp2","2016_Mar_22_1751",NA
"Recordings/vizi.wav","yes","v","z","i","no","i","vizi","Training","bilabial","TrainingItems",0,55,55,31,NA,NA,NA,NA,NA,NA,NA,NA,NA,NA,33,FALSE,19,60.9306872873,"French","American English","VSH_Exp2","2016_Mar_22_1751",NA
"Recordings/vaza.wav","yes","v","z","a","no","a","vaza","Training","bilabial","TrainingItems",0,56,56,99,NA,NA,NA,NA,NA,NA,NA,NA,NA,NA,33,FALSE,19,60.9306872873,"French","American English","VSH_Exp2","2016_Mar_22_1751",NA
"Recordings/dudu.wav","yes","d","d","u","yes","u","dudu","Training","alveolar","TrainingItems",0,57,57,37,NA,NA,NA,NA,NA,NA,NA,NA,NA,NA,33,FALSE,19,60.9306872873,"French","American English","VSH_Exp2","2016_Mar_22_1751",NA
"Recordings/patu.wav","no","p","t","a","yes","u","patu","Training","bilabial","TrainingItems",0,58,58,61,NA,NA,NA,NA,NA,NA,NA,NA,NA,NA,33,FALSE,19,60.9306872873,"French","American English","VSH_Exp2","2016_Mar_22_1751",NA
"Recordings/viza.wav","yes","v","z","i","no","a","viza","Training","bilabial","TrainingItems",0,59,59,75,NA,NA,NA,NA,NA,NA,NA,NA,NA,NA,33,FALSE,19,60.9306872873,"French","American English","VSH_Exp2","2016_Mar_22_1751",NA
"Recordings/zaza.wav","yes","z","z","a","no","a","zaza","Training","alveolar","TrainingItems",0,60,60,48,NA,NA,NA,NA,NA,NA,NA,NA,NA,NA,33,FALSE,19,60.9306872873,"French","American English","VSH_Exp2","2016_Mar_22_1751",NA
"Recordings/zuzu.wav","yes","z","z","u","no","u","zuzu","Training","alveolar","TrainingItems",0,61,61,81,NA,NA,NA,NA,NA,NA,NA,NA,NA,NA,33,FALSE,19,60.9306872873,"French","American English","VSH_Exp2","2016_Mar_22_1751",NA
"Recordings/puti.wav","no","p","t","u","yes","i","puti","Training","bilabial","TrainingItems",0,62,62,7,NA,NA,NA,NA,NA,NA,NA,NA,NA,NA,33,FALSE,19,60.9306872873,"French","American English","VSH_Exp2","2016_Mar_22_1751",NA
"Recordings/zizi.wav","yes","z","z","i","no","i","zizi","Training","alveolar","TrainingItems",0,63,63,29,NA,NA,NA,NA,NA,NA,NA,NA,NA,NA,33,FALSE,19,60.9306872873,"French","American English","VSH_Exp2","2016_Mar_22_1751",NA
"Recordings/tipi.wav","no","t","p","i","yes","i","tipi","Training","alveolar","TrainingItems",0,64,64,89,NA,NA,NA,NA,NA,NA,NA,NA,NA,NA,33,FALSE,19,60.9306872873,"French","American English","VSH_Exp2","2016_Mar_22_1751",NA
"Recordings/pita.wav","no","p","t","i","yes","a","pita","Training","bilabial","TrainingItems",0,65,65,71,NA,NA,NA,NA,NA,NA,NA,NA,NA,NA,33,FALSE,19,60.9306872873,"French","American English","VSH_Exp2","2016_Mar_22_1751",NA
"Recordings/zuva.wav","yes","z","v","u","no","a","zuva","Training","alveolar","TrainingItems",0,66,66,87,NA,NA,NA,NA,NA,NA,NA,NA,NA,NA,33,FALSE,19,60.9306872873,"French","American English","VSH_Exp2","2016_Mar_22_1751",NA
"Recordings/vivu.wav","yes","v","v","i","no","u","vivu","Training","bilabial","TrainingItems",0,67,67,94,NA,NA,NA,NA,NA,NA,NA,NA,NA,NA,33,FALSE,19,60.9306872873,"French","American English","VSH_Exp2","2016_Mar_22_1751",NA
"Recordings/tuti.wav","no","t","t","u","yes","i","tuti","Training","alveolar","TrainingItems",0,68,68,45,NA,NA,NA,NA,NA,NA,NA,NA,NA,NA,33,FALSE,19,60.9306872873,"French","American English","VSH_Exp2","2016_Mar_22_1751",NA
"Recordings/duda.wav","yes","d","d","u","yes","a","duda","Training","alveolar","TrainingItems",0,69,69,28,NA,NA,NA,NA,NA,NA,NA,NA,NA,NA,33,FALSE,19,60.9306872873,"French","American English","VSH_Exp2","2016_Mar_22_1751",NA
"Recordings/vuza.wav","yes","v","z","u","no","a","vuza","Training","bilabial","TrainingItems",0,70,70,78,NA,NA,NA,NA,NA,NA,NA,NA,NA,NA,33,FALSE,19,60.9306872873,"French","American English","VSH_Exp2","2016_Mar_22_1751",NA
"Recordings/sisi.wav","no","s","s","i","no","i","sisi","Training","alveolar","TrainingItems",0,71,71,23,NA,NA,NA,NA,NA,NA,NA,NA,NA,NA,33,FALSE,19,60.9306872873,"French","American English","VSH_Exp2","2016_Mar_22_1751",NA
"Recordings/baba.wav","yes","b","b","a","yes","a","baba","Training","bilabial","TrainingItems",0,72,72,58,NA,NA,NA,NA,NA,NA,NA,NA,NA,NA,33,FALSE,19,60.9306872873,"French","American English","VSH_Exp2","2016_Mar_22_1751",NA
"Recordings/dabi.wav","yes","d","b","a","yes","i","dabi","Training","alveolar","TrainingItems",0,73,73,12,NA,NA,NA,NA,NA,NA,NA,NA,NA,NA,33,FALSE,19,60.9306872873,"French","American English","VSH_Exp2","2016_Mar_22_1751",NA
"Recordings/biba.wav","yes","b","b","i","yes","a","biba","Training","bilabial","TrainingItems",0,74,74,2,NA,NA,NA,NA,NA,NA,NA,NA,NA,NA,33,FALSE,19,60.9306872873,"French","American English","VSH_Exp2","2016_Mar_22_1751",NA
"Recordings/vuvu.wav","yes","v","v","u","no","u","vuvu","Training","bilabial","TrainingItems",0,75,75,5,NA,NA,NA,NA,NA,NA,NA,NA,NA,NA,33,FALSE,19,60.9306872873,"French","American English","VSH_Exp2","2016_Mar_22_1751",NA
"Recordings/tapi.wav","no","t","p","a","yes","i","tapi","Training","alveolar","TrainingItems",0,76,76,70,NA,NA,NA,NA,NA,NA,NA,NA,NA,NA,33,FALSE,19,60.9306872873,"French","American English","VSH_Exp2","2016_Mar_22_1751",NA
"Recordings/tupu.wav","no","t","p","u","yes","u","tupu","Training","alveolar","TrainingItems",0,77,77,83,NA,NA,NA,NA,NA,NA,NA,NA,NA,NA,33,FALSE,19,60.9306872873,"French","American English","VSH_Exp2","2016_Mar_22_1751",NA
"Recordings/zuzi.wav","yes","z","z","u","no","i","zuzi","Training","alveolar","TrainingItems",0,78,78,41,NA,NA,NA,NA,NA,NA,NA,NA,NA,NA,33,FALSE,19,60.9306872873,"French","American English","VSH_Exp2","2016_Mar_22_1751",NA
"Recordings/tipu.wav","no","t","p","i","yes","u","tipu","Training","alveolar","TrainingItems",0,79,79,49,NA,NA,NA,NA,NA,NA,NA,NA,NA,NA,33,FALSE,19,60.9306872873,"French","American English","VSH_Exp2","2016_Mar_22_1751",NA
"Recordings/vavu.wav","yes","v","v","a","no","u","vavu","Training","bilabial","TrainingItems",0,80,80,10,NA,NA,NA,NA,NA,NA,NA,NA,NA,NA,33,FALSE,19,60.9306872873,"French","American English","VSH_Exp2","2016_Mar_22_1751",NA
"Recordings/bidu.wav","yes","b","d","i","yes","u","bidu","Training","bilabial","TrainingItems",0,81,81,65,NA,NA,NA,NA,NA,NA,NA,NA,NA,NA,33,FALSE,19,60.9306872873,"French","American English","VSH_Exp2","2016_Mar_22_1751",NA
"Recordings/tatu.wav","no","t","t","a","yes","u","tatu","Training","alveolar","TrainingItems",0,82,82,93,NA,NA,NA,NA,NA,NA,NA,NA,NA,NA,33,FALSE,19,60.9306872873,"French","American English","VSH_Exp2","2016_Mar_22_1751",NA
"Recordings/zazu.wav","yes","z","z","a","no","u","zazu","Training","alveolar","TrainingItems",0,83,83,36,NA,NA,NA,NA,NA,NA,NA,NA,NA,NA,33,FALSE,19,60.9306872873,"French","American English","VSH_Exp2","2016_Mar_22_1751",NA
"Recordings/papu.wav","no","p","p","a","yes","u","papu","Training","bilabial","TrainingItems",0,84,84,56,NA,NA,NA,NA,NA,NA,NA,NA,NA,NA,33,FALSE,19,60.9306872873,"French","American English","VSH_Exp2","2016_Mar_22_1751",NA
"Recordings/putu.wav","no","p","t","u","yes","u","putu","Training","bilabial","TrainingItems",0,85,85,91,NA,NA,NA,NA,NA,NA,NA,NA,NA,NA,33,FALSE,19,60.9306872873,"French","American English","VSH_Exp2","2016_Mar_22_1751",NA
"Recordings/bida.wav","yes","b","d","i","yes","a","bida","Training","bilabial","TrainingItems",0,86,86,72,NA,NA,NA,NA,NA,NA,NA,NA,NA,NA,33,FALSE,19,60.9306872873,"French","American English","VSH_Exp2","2016_Mar_22_1751",NA
"Recordings/dada.wav","yes","d","d","a","yes","a","dada","Training","alveolar","TrainingItems",0,87,87,44,NA,NA,NA,NA,NA,NA,NA,NA,NA,NA,33,FALSE,19,60.9306872873,"French","American English","VSH_Exp2","2016_Mar_22_1751",NA
"Recordings/vuva.wav","yes","v","v","u","no","a","vuva","Training","bilabial","TrainingItems",0,88,88,51,NA,NA,NA,NA,NA,NA,NA,NA,NA,NA,33,FALSE,19,60.9306872873,"French","American English","VSH_Exp2","2016_Mar_22_1751",NA
"Recordings/sisa.wav","no","s","s","i","no","a","sisa","Training","alveolar","TrainingItems",0,89,89,79,NA,NA,NA,NA,NA,NA,NA,NA,NA,NA,33,FALSE,19,60.9306872873,"French","American English","VSH_Exp2","2016_Mar_22_1751",NA
"Recordings/zuvu.wav","yes","z","v","u","no","u","zuvu","Training","alveolar","TrainingItems",0,90,90,8,NA,NA,NA,NA,NA,NA,NA,NA,NA,NA,33,FALSE,19,60.9306872873,"French","American English","VSH_Exp2","2016_Mar_22_1751",NA
"Recordings/dibu.wav","yes","d","b","i","yes","u","dibu","Training","alveolar","TrainingItems",0,91,91,20,NA,NA,NA,NA,NA,NA,NA,NA,NA,NA,33,FALSE,19,60.9306872873,"French","American English","VSH_Exp2","2016_Mar_22_1751",NA
"Recordings/papa.wav","no","p","p","a","yes","a","papa","Training","bilabial","TrainingItems",0,92,92,46,NA,NA,NA,NA,NA,NA,NA,NA,NA,NA,33,FALSE,19,60.9306872873,"French","American English","VSH_Exp2","2016_Mar_22_1751",NA
"Recordings/dadi.wav","yes","d","d","a","yes","i","dadi","Training","alveolar","TrainingItems",0,93,93,59,NA,NA,NA,NA,NA,NA,NA,NA,NA,NA,33,FALSE,19,60.9306872873,"French","American English","VSH_Exp2","2016_Mar_22_1751",NA
"Recordings/duba.wav","yes","d","b","u","yes","a","duba","Training","alveolar","TrainingItems",0,94,94,62,NA,NA,NA,NA,NA,NA,NA,NA,NA,NA,33,FALSE,19,60.9306872873,"French","American English","VSH_Exp2","2016_Mar_22_1751",NA
"Recordings/tati.wav","no","t","t","a","yes","i","tati","Training","alveolar","TrainingItems",0,95,95,77,NA,NA,NA,NA,NA,NA,NA,NA,NA,NA,33,FALSE,19,60.9306872873,"French","American English","VSH_Exp2","2016_Mar_22_1751",NA
"Recordings/diba.wav","yes","d","b","i","yes","a","diba","Training","alveolar","TrainingItems",0,96,96,24,NA,NA,NA,NA,NA,NA,NA,NA,NA,NA,33,FALSE,19,60.9306872873,"French","American English","VSH_Exp2","2016_Mar_22_1751",NA
"Recordings/tita.wav","no","t","t","i","yes","a","tita","Training","alveolar","TrainingItems",0,97,97,15,NA,NA,NA,NA,NA,NA,NA,NA,NA,NA,33,FALSE,19,60.9306872873,"French","American English","VSH_Exp2","2016_Mar_22_1751",NA
"Recordings/pupi.wav","no","p","p","u","yes","i","pupi","Training","bilabial","TrainingItems",0,98,98,57,NA,NA,NA,NA,NA,NA,NA,NA,NA,NA,33,FALSE,19,60.9306872873,"French","American English","VSH_Exp2","2016_Mar_22_1751",NA
"Recordings/susi.wav","no","s","s","u","no","i","susi","Training","alveolar","TrainingItems",0,99,99,80,NA,NA,NA,NA,NA,NA,NA,NA,NA,NA,33,FALSE,19,60.9306872873,"French","American English","VSH_Exp2","2016_Mar_22_1751",NA
"Recordings/fufa.wav","no","f","f","u","no","a","fufa","Training","bilabial","TrainingItems",1,0,100,21,NA,NA,NA,NA,NA,NA,NA,NA,NA,NA,33,FALSE,19,60.9306872873,"French","American English","VSH_Exp2","2016_Mar_22_1751",NA
"Recordings/zavi.wav","yes","z","v","a","no","i","zavi","Training","alveolar","TrainingItems",1,1,101,18,NA,NA,NA,NA,NA,NA,NA,NA,NA,NA,33,FALSE,19,60.9306872873,"French","American English","VSH_Exp2","2016_Mar_22_1751",NA
"Recordings/dada.wav","yes","d","d","a","yes","a","dada","Training","alveolar","TrainingItems",1,2,102,44,NA,NA,NA,NA,NA,NA,NA,NA,NA,NA,33,FALSE,19,60.9306872873,"French","American English","VSH_Exp2","2016_Mar_22_1751",NA
"Recordings/didu.wav","yes","d","d","i","yes","u","didu","Training","alveolar","TrainingItems",1,3,103,82,NA,NA,NA,NA,NA,NA,NA,NA,NA,NA,33,FALSE,19,60.9306872873,"French","American English","VSH_Exp2","2016_Mar_22_1751",NA
"Recordings/vavu.wav","yes","v","v","a","no","u","vavu","Training","bilabial","TrainingItems",1,4,104,10,NA,NA,NA,NA,NA,NA,NA,NA,NA,NA,33,FALSE,19,60.9306872873,"French","American English","VSH_Exp2","2016_Mar_22_1751",NA
"Recordings/fafu.wav","no","f","f","a","no","u","fafu","Training","bilabial","TrainingItems",1,5,105,50,NA,NA,NA,NA,NA,NA,NA,NA,NA,NA,33,FALSE,19,60.9306872873,"French","American English","VSH_Exp2","2016_Mar_22_1751",NA
"Recordings/papa.wav","no","p","p","a","yes","a","papa","Training","bilabial","TrainingItems",1,6,106,46,NA,NA,NA,NA,NA,NA,NA,NA,NA,NA,33,FALSE,19,60.9306872873,"French","American English","VSH_Exp2","2016_Mar_22_1751",NA
"Recordings/badi.wav","yes","b","d","a","yes","i","badi","Training","bilabial","TrainingItems",1,7,107,54,NA,NA,NA,NA,NA,NA,NA,NA,NA,NA,33,FALSE,19,60.9306872873,"French","American English","VSH_Exp2","2016_Mar_22_1751",NA
"Recordings/piti.wav","no","p","t","i","yes","i","piti","Training","bilabial","TrainingItems",1,8,108,55,NA,NA,NA,NA,NA,NA,NA,NA,NA,NA,33,FALSE,19,60.9306872873,"French","American English","VSH_Exp2","2016_Mar_22_1751",NA
"Recordings/fafa.wav","no","f","f","a","no","a","fafa","Training","bilabial","TrainingItems",1,9,109,32,NA,NA,NA,NA,NA,NA,NA,NA,NA,NA,33,FALSE,19,60.9306872873,"French","American English","VSH_Exp2","2016_Mar_22_1751",NA
"Recordings/tita.wav","no","t","t","i","yes","a","tita","Training","alveolar","TrainingItems",1,10,110,15,NA,NA,NA,NA,NA,NA,NA,NA,NA,NA,33,FALSE,19,60.9306872873,"French","American English","VSH_Exp2","2016_Mar_22_1751",NA
"Recordings/tutu.wav","no","t","t","u","yes","u","tutu","Training","alveolar","TrainingItems",1,11,111,6,NA,NA,NA,NA,NA,NA,NA,NA,NA,NA,33,FALSE,19,60.9306872873,"French","American English","VSH_Exp2","2016_Mar_22_1751",NA
"Recordings/vuzi.wav","yes","v","z","u","no","i","vuzi","Training","bilabial","TrainingItems",1,12,112,17,NA,NA,NA,NA,NA,NA,NA,NA,NA,NA,33,FALSE,19,60.9306872873,"French","American English","VSH_Exp2","2016_Mar_22_1751",NA
"Recordings/tapa.wav","no","t","p","a","yes","a","tapa","Training","alveolar","TrainingItems",1,13,113,9,NA,NA,NA,NA,NA,NA,NA,NA,NA,NA,33,FALSE,19,60.9306872873,"French","American English","VSH_Exp2","2016_Mar_22_1751",NA
"Recordings/pata.wav","no","p","t","a","yes","a","pata","Training","bilabial","TrainingItems",1,14,114,76,NA,NA,NA,NA,NA,NA,NA,NA,NA,NA,33,FALSE,19,60.9306872873,"French","American English","VSH_Exp2","2016_Mar_22_1751",NA
"Recordings/susu.wav","no","s","s","u","no","u","susu","Training","alveolar","TrainingItems",1,15,115,38,NA,NA,NA,NA,NA,NA,NA,NA,NA,NA,33,FALSE,19,60.9306872873,"French","American English","VSH_Exp2","2016_Mar_22_1751",NA
"Recordings/dadu.wav","yes","d","d","a","yes","u","dadu","Training","alveolar","TrainingItems",1,16,116,67,NA,NA,NA,NA,NA,NA,NA,NA,NA,NA,33,FALSE,19,60.9306872873,"French","American English","VSH_Exp2","2016_Mar_22_1751",NA
"Recordings/tipa.wav","no","t","p","i","yes","a","tipa","Training","alveolar","TrainingItems",1,17,117,88,NA,NA,NA,NA,NA,NA,NA,NA,NA,NA,33,FALSE,19,60.9306872873,"French","American English","VSH_Exp2","2016_Mar_22_1751",NA
"Recordings/vaza.wav","yes","v","z","a","no","a","vaza","Training","bilabial","TrainingItems",1,18,118,99,NA,NA,NA,NA,NA,NA,NA,NA,NA,NA,33,FALSE,19,60.9306872873,"French","American English","VSH_Exp2","2016_Mar_22_1751",NA
"Recordings/budu.wav","yes","b","d","u","yes","u","budu","Training","bilabial","TrainingItems",1,19,119,52,NA,NA,NA,NA,NA,NA,NA,NA,NA,NA,33,FALSE,19,60.9306872873,"French","American English","VSH_Exp2","2016_Mar_22_1751",NA
"Recordings/dadi.wav","yes","d","d","a","yes","i","dadi","Training","alveolar","TrainingItems",1,20,120,59,NA,NA,NA,NA,NA,NA,NA,NA,NA,NA,33,FALSE,19,60.9306872873,"French","American English","VSH_Exp2","2016_Mar_22_1751",NA
"Recordings/sisa.wav","no","s","s","i","no","a","sisa","Training","alveolar","TrainingItems",1,21,121,79,NA,NA,NA,NA,NA,NA,NA,NA,NA,NA,33,FALSE,19,60.9306872873,"French","American English","VSH_Exp2","2016_Mar_22_1751",NA
"Recordings/dubu.wav","yes","d","b","u","yes","u","dubu","Training","alveolar","TrainingItems",1,22,122,22,NA,NA,NA,NA,NA,NA,NA,NA,NA,NA,33,FALSE,19,60.9306872873,"French","American English","VSH_Exp2","2016_Mar_22_1751",NA
"Recordings/zuva.wav","yes","z","v","u","no","a","zuva","Training","alveolar","TrainingItems",1,23,123,87,NA,NA,NA,NA,NA,NA,NA,NA,NA,NA,33,FALSE,19,60.9306872873,"French","American English","VSH_Exp2","2016_Mar_22_1751",NA
"Recordings/bida.wav","yes","b","d","i","yes","a","bida","Training","bilabial","TrainingItems",1,24,124,72,NA,NA,NA,NA,NA,NA,NA,NA,NA,NA,33,FALSE,19,60.9306872873,"French","American English","VSH_Exp2","2016_Mar_22_1751",NA
"Recordings/zuzu.wav","yes","z","z","u","no","u","zuzu","Training","alveolar","TrainingItems",1,25,125,81,NA,NA,NA,NA,NA,NA,NA,NA,NA,NA,33,FALSE,19,60.9306872873,"French","American English","VSH_Exp2","2016_Mar_22_1751",NA
"Recordings/zaza.wav","yes","z","z","a","no","a","zaza","Training","alveolar","TrainingItems",1,26,126,48,NA,NA,NA,NA,NA,NA,NA,NA,NA,NA,33,FALSE,19,60.9306872873,"French","American English","VSH_Exp2","2016_Mar_22_1751",NA
"Recordings/vizu.wav","yes","v","z","i","no","u","vizu","Training","bilabial","TrainingItems",1,27,127,40,NA,NA,NA,NA,NA,NA,NA,NA,NA,NA,33,FALSE,19,60.9306872873,"French","American English","VSH_Exp2","2016_Mar_22_1751",NA
"Recordings/pitu.wav","no","p","t","i","yes","u","pitu","Training","bilabial","TrainingItems",1,28,128,14,NA,NA,NA,NA,NA,NA,NA,NA,NA,NA,33,FALSE,19,60.9306872873,"French","American English","VSH_Exp2","2016_Mar_22_1751",NA
"Recordings/sisi.wav","no","s","s","i","no","i","sisi","Training","alveolar","TrainingItems",1,29,129,23,NA,NA,NA,NA,NA,NA,NA,NA,NA,NA,33,FALSE,19,60.9306872873,"French","American English","VSH_Exp2","2016_Mar_22_1751",NA
"Recordings/buba.wav","yes","b","b","u","yes","a","buba","Training","bilabial","TrainingItems",1,30,130,27,NA,NA,NA,NA,NA,NA,NA,NA,NA,NA,33,FALSE,19,60.9306872873,"French","American English","VSH_Exp2","2016_Mar_22_1751",NA
"Recordings/fifi.wav","no","f","f","i","no","i","fifi","Training","bilabial","TrainingItems",1,31,131,26,NA,NA,NA,NA,NA,NA,NA,NA,NA,NA,33,FALSE,19,60.9306872873,"French","American English","VSH_Exp2","2016_Mar_22_1751",NA
"Recordings/babi.wav","yes","b","b","a","yes","i","babi","Training","bilabial","TrainingItems",1,32,132,96,NA,NA,NA,NA,NA,NA,NA,NA,NA,NA,33,FALSE,19,60.9306872873,"French","American English","VSH_Exp2","2016_Mar_22_1751",NA
"Recordings/zuza.wav","yes","z","z","u","no","a","zuza","Training","alveolar","TrainingItems",1,33,133,30,NA,NA,NA,NA,NA,NA,NA,NA,NA,NA,33,FALSE,19,60.9306872873,"French","American English","VSH_Exp2","2016_Mar_22_1751",NA
"Recordings/dibu.wav","yes","d","b","i","yes","u","dibu","Training","alveolar","TrainingItems",1,34,134,20,NA,NA,NA,NA,NA,NA,NA,NA,NA,NA,33,FALSE,19,60.9306872873,"French","American English","VSH_Exp2","2016_Mar_22_1751",NA
"Recordings/bibu.wav","yes","b","b","i","yes","u","bibu","Training","bilabial","TrainingItems",1,35,135,33,NA,NA,NA,NA,NA,NA,NA,NA,NA,NA,33,FALSE,19,60.9306872873,"French","American English","VSH_Exp2","2016_Mar_22_1751",NA
"Recordings/viza.wav","yes","v","z","i","no","a","viza","Training","bilabial","TrainingItems",1,36,136,75,NA,NA,NA,NA,NA,NA,NA,NA,NA,NA,33,FALSE,19,60.9306872873,"French","American English","VSH_Exp2","2016_Mar_22_1751",NA
"Recordings/papu.wav","no","p","p","a","yes","u","papu","Training","bilabial","TrainingItems",1,37,137,56,NA,NA,NA,NA,NA,NA,NA,NA,NA,NA,33,FALSE,19,60.9306872873,"French","American English","VSH_Exp2","2016_Mar_22_1751",NA
"Recordings/buda.wav","yes","b","d","u","yes","a","buda","Training","bilabial","TrainingItems",1,38,138,13,NA,NA,NA,NA,NA,NA,NA,NA,NA,NA,33,FALSE,19,60.9306872873,"French","American English","VSH_Exp2","2016_Mar_22_1751",NA
"Recordings/zuvu.wav","yes","z","v","u","no","u","zuvu","Training","alveolar","TrainingItems",1,39,139,8,NA,NA,NA,NA,NA,NA,NA,NA,NA,NA,33,FALSE,19,60.9306872873,"French","American English","VSH_Exp2","2016_Mar_22_1751",NA
"Recordings/vuvi.wav","yes","v","v","u","no","i","vuvi","Training","bilabial","TrainingItems",1,40,140,34,NA,NA,NA,NA,NA,NA,NA,NA,NA,NA,33,FALSE,19,60.9306872873,"French","American English","VSH_Exp2","2016_Mar_22_1751",NA
"Recordings/daba.wav","yes","d","b","a","yes","a","daba","Training","alveolar","TrainingItems",1,41,141,53,NA,NA,NA,NA,NA,NA,NA,NA,NA,NA,33,FALSE,19,60.9306872873,"French","American English","VSH_Exp2","2016_Mar_22_1751",NA
"Recordings/zuzi.wav","yes","z","z","u","no","i","zuzi","Training","alveolar","TrainingItems",1,42,142,41,NA,NA,NA,NA,NA,NA,NA,NA,NA,NA,33,FALSE,19,60.9306872873,"French","American English","VSH_Exp2","2016_Mar_22_1751",NA
"Recordings/vuvu.wav","yes","v","v","u","no","u","vuvu","Training","bilabial","TrainingItems",1,43,143,5,NA,NA,NA,NA,NA,NA,NA,NA,NA,NA,33,FALSE,19,60.9306872873,"French","American English","VSH_Exp2","2016_Mar_22_1751",NA
"Recordings/diba.wav","yes","d","b","i","yes","a","diba","Training","alveolar","TrainingItems",1,44,144,24,NA,NA,NA,NA,NA,NA,NA,NA,NA,NA,33,FALSE,19,60.9306872873,"French","American English","VSH_Exp2","2016_Mar_22_1751",NA
"Recordings/susi.wav","no","s","s","u","no","i","susi","Training","alveolar","TrainingItems",1,45,145,80,NA,NA,NA,NA,NA,NA,NA,NA,NA,NA,33,FALSE,19,60.9306872873,"French","American English","VSH_Exp2","2016_Mar_22_1751",NA
"Recordings/zizi.wav","yes","z","z","i","no","i","zizi","Training","alveolar","TrainingItems",1,46,146,29,NA,NA,NA,NA,NA,NA,NA,NA,NA,NA,33,FALSE,19,60.9306872873,"French","American English","VSH_Exp2","2016_Mar_22_1751",NA
"Recordings/putu.wav","no","p","t","u","yes","u","putu","Training","bilabial","TrainingItems",1,47,147,91,NA,NA,NA,NA,NA,NA,NA,NA,NA,NA,33,FALSE,19,60.9306872873,"French","American English","VSH_Exp2","2016_Mar_22_1751",NA
"Recordings/tipu.wav","no","t","p","i","yes","u","tipu","Training","alveolar","TrainingItems",1,48,148,49,NA,NA,NA,NA,NA,NA,NA,NA,NA,NA,33,FALSE,19,60.9306872873,"French","American English","VSH_Exp2","2016_Mar_22_1751",NA
"Recordings/vizi.wav","yes","v","z","i","no","i","vizi","Training","bilabial","TrainingItems",1,49,149,31,NA,NA,NA,NA,NA,NA,NA,NA,NA,NA,33,FALSE,19,60.9306872873,"French","American English","VSH_Exp2","2016_Mar_22_1751",NA
"Recordings/puti.wav","no","p","t","u","yes","i","puti","Training","bilabial","TrainingItems",1,50,150,7,NA,NA,NA,NA,NA,NA,NA,NA,NA,NA,33,FALSE,19,60.9306872873,"French","American English","VSH_Exp2","2016_Mar_22_1751",NA
"Recordings/ziva.wav","yes","z","v","i","no","a","ziva","Training","alveolar","TrainingItems",1,51,151,66,NA,NA,NA,NA,NA,NA,NA,NA,NA,NA,33,FALSE,19,60.9306872873,"French","American English","VSH_Exp2","2016_Mar_22_1751",NA
"Recordings/bidi.wav","yes","b","d","i","yes","i","bidi","Training","bilabial","TrainingItems",1,52,152,1,NA,NA,NA,NA,NA,NA,NA,NA,NA,NA,33,FALSE,19,60.9306872873,"French","American English","VSH_Exp2","2016_Mar_22_1751",NA
"Recordings/pipu.wav","no","p","p","i","yes","u","pipu","Training","bilabial","TrainingItems",1,53,153,43,NA,NA,NA,NA,NA,NA,NA,NA,NA,NA,33,FALSE,19,60.9306872873,"French","American English","VSH_Exp2","2016_Mar_22_1751",NA
"Recordings/tatu.wav","no","t","t","a","yes","u","tatu","Training","alveolar","TrainingItems",1,54,154,93,NA,NA,NA,NA,NA,NA,NA,NA,NA,NA,33,FALSE,19,60.9306872873,"French","American English","VSH_Exp2","2016_Mar_22_1751",NA
"Recordings/dudu.wav","yes","d","d","u","yes","u","dudu","Training","alveolar","TrainingItems",1,55,155,37,NA,NA,NA,NA,NA,NA,NA,NA,NA,NA,33,FALSE,19,60.9306872873,"French","American English","VSH_Exp2","2016_Mar_22_1751",NA
"Recordings/budi.wav","yes","b","d","u","yes","i","budi","Training","bilabial","TrainingItems",1,56,156,11,NA,NA,NA,NA,NA,NA,NA,NA,NA,NA,33,FALSE,19,60.9306872873,"French","American English","VSH_Exp2","2016_Mar_22_1751",NA
"Recordings/vuva.wav","yes","v","v","u","no","a","vuva","Training","bilabial","TrainingItems",1,57,157,51,NA,NA,NA,NA,NA,NA,NA,NA,NA,NA,33,FALSE,19,60.9306872873,"French","American English","VSH_Exp2","2016_Mar_22_1751",NA
"Recordings/dida.wav","yes","d","d","i","yes","a","dida","Training","alveolar","TrainingItems",1,58,158,25,NA,NA,NA,NA,NA,NA,NA,NA,NA,NA,33,FALSE,19,60.9306872873,"French","American English","VSH_Exp2","2016_Mar_22_1751",NA
"Recordings/zuvi.wav","yes","z","v","u","no","i","zuvi","Training","alveolar","TrainingItems",1,59,159,74,NA,NA,NA,NA,NA,NA,NA,NA,NA,NA,33,FALSE,19,60.9306872873,"French","American English","VSH_Exp2","2016_Mar_22_1751",NA
"Recordings/zivi.wav","yes","z","v","i","no","i","zivi","Training","alveolar","TrainingItems",1,60,160,3,NA,NA,NA,NA,NA,NA,NA,NA,NA,NA,33,FALSE,19,60.9306872873,"French","American English","VSH_Exp2","2016_Mar_22_1751",NA
"Recordings/zazi.wav","yes","z","z","a","no","i","zazi","Training","alveolar","TrainingItems",1,61,161,60,NA,NA,NA,NA,NA,NA,NA,NA,NA,NA,33,FALSE,19,60.9306872873,"French","American English","VSH_Exp2","2016_Mar_22_1751",NA
"Recordings/badu.wav","yes","b","d","a","yes","u","badu","Training","bilabial","TrainingItems",1,62,162,97,NA,NA,NA,NA,NA,NA,NA,NA,NA,NA,33,FALSE,19,60.9306872873,"French","American English","VSH_Exp2","2016_Mar_22_1751",NA
"Recordings/tapu.wav","no","t","p","a","yes","u","tapu","Training","alveolar","TrainingItems",1,63,163,73,NA,NA,NA,NA,NA,NA,NA,NA,NA,NA,33,FALSE,19,60.9306872873,"French","American English","VSH_Exp2","2016_Mar_22_1751",NA
"Recordings/pupa.wav","no","p","p","u","yes","a","pupa","Training","bilabial","TrainingItems",1,64,164,90,NA,NA,NA,NA,NA,NA,NA,NA,NA,NA,33,FALSE,19,60.9306872873,"French","American English","VSH_Exp2","2016_Mar_22_1751",NA
"Recordings/dabi.wav","yes","d","b","a","yes","i","dabi","Training","alveolar","TrainingItems",1,65,165,12,NA,NA,NA,NA,NA,NA,NA,NA,NA,NA,33,FALSE,19,60.9306872873,"French","American English","VSH_Exp2","2016_Mar_22_1751",NA
"Recordings/bidu.wav","yes","b","d","i","yes","u","bidu","Training","bilabial","TrainingItems",1,66,166,65,NA,NA,NA,NA,NA,NA,NA,NA,NA,NA,33,FALSE,19,60.9306872873,"French","American English","VSH_Exp2","2016_Mar_22_1751",NA
"Recordings/tupu.wav","no","t","p","u","yes","u","tupu","Training","alveolar","TrainingItems",1,67,167,83,NA,NA,NA,NA,NA,NA,NA,NA,NA,NA,33,FALSE,19,60.9306872873,"French","American English","VSH_Exp2","2016_Mar_22_1751",NA
"Recordings/papi.wav","no","p","p","a","yes","i","papi","Training","bilabial","TrainingItems",1,68,168,64,NA,NA,NA,NA,NA,NA,NA,NA,NA,NA,33,FALSE,19,60.9306872873,"French","American English","VSH_Exp2","2016_Mar_22_1751",NA
"Recordings/zazu.wav","yes","z","z","a","no","u","zazu","Training","alveolar","TrainingItems",1,69,169,36,NA,NA,NA,NA,NA,NA,NA,NA,NA,NA,33,FALSE,19,60.9306872873,"French","American English","VSH_Exp2","2016_Mar_22_1751",NA
"Recordings/sasa.wav","no","s","s","a","no","a","sasa","Training","alveolar","TrainingItems",1,70,170,39,NA,NA,NA,NA,NA,NA,NA,NA,NA,NA,33,FALSE,19,60.9306872873,"French","American English","VSH_Exp2","2016_Mar_22_1751",NA
"Recordings/tuti.wav","no","t","t","u","yes","i","tuti","Training","alveolar","TrainingItems",1,71,171,45,NA,NA,NA,NA,NA,NA,NA,NA,NA,NA,33,FALSE,19,60.9306872873,"French","American English","VSH_Exp2","2016_Mar_22_1751",NA
"Recordings/fafi.wav","no","f","f","a","no","i","fafi","Training","bilabial","TrainingItems",1,72,172,69,NA,NA,NA,NA,NA,NA,NA,NA,NA,NA,33,FALSE,19,60.9306872873,"French","American English","VSH_Exp2","2016_Mar_22_1751",NA
"Recordings/tati.wav","no","t","t","a","yes","i","tati","Training","alveolar","TrainingItems",1,73,173,77,NA,NA,NA,NA,NA,NA,NA,NA,NA,NA,33,FALSE,19,60.9306872873,"French","American English","VSH_Exp2","2016_Mar_22_1751",NA
"Recordings/fufu.wav","no","f","f","u","no","u","fufu","Training","bilabial","TrainingItems",1,74,174,63,NA,NA,NA,NA,NA,NA,NA,NA,NA,NA,33,FALSE,19,60.9306872873,"French","American English","VSH_Exp2","2016_Mar_22_1751",NA
"Recordings/zivu.wav","yes","z","v","i","no","u","zivu","Training","alveolar","TrainingItems",1,75,175,68,NA,NA,NA,NA,NA,NA,NA,NA,NA,NA,33,FALSE,19,60.9306872873,"French","American English","VSH_Exp2","2016_Mar_22_1751",NA
"Recordings/tuta.wav","no","t","t","u","yes","a","tuta","Training","alveolar","TrainingItems",1,76,176,95,NA,NA,NA,NA,NA,NA,NA,NA,NA,NA,33,FALSE,19,60.9306872873,"French","American English","VSH_Exp2","2016_Mar_22_1751",NA
"Recordings/viva.wav","yes","v","v","i","no","a","viva","Training","bilabial","TrainingItems",1,77,177,47,NA,NA,NA,NA,NA,NA,NA,NA,NA,NA,33,FALSE,19,60.9306872873,"French","American English","VSH_Exp2","2016_Mar_22_1751",NA
"Recordings/vazi.wav","yes","v","z","a","no","i","vazi","Training","bilabial","TrainingItems",1,78,178,92,NA,NA,NA,NA,NA,NA,NA,NA,NA,NA,33,FALSE,19,60.9306872873,"French","American English","VSH_Exp2","2016_Mar_22_1751",NA
"Recordings/tupa.wav","no","t","p","u","yes","a","tupa","Training","alveolar","TrainingItems",1,79,179,19,NA,NA,NA,NA,NA,NA,NA,NA,NA,NA,33,FALSE,19,60.9306872873,"French","American English","VSH_Exp2","2016_Mar_22_1751",NA
"Recordings/pita.wav","no","p","t","i","yes","a","pita","Training","bilabial","TrainingItems",1,80,180,71,NA,NA,NA,NA,NA,NA,NA,NA,NA,NA,33,FALSE,19,60.9306872873,"French","American English","VSH_Exp2","2016_Mar_22_1751",NA
"Recordings/duda.wav","yes","d","d","u","yes","a","duda","Training","alveolar","TrainingItems",1,81,181,28,NA,NA,NA,NA,NA,NA,NA,NA,NA,NA,33,FALSE,19,60.9306872873,"French","American English","VSH_Exp2","2016_Mar_22_1751",NA
"Recordings/pipa.wav","no","p","p","i","yes","a","pipa","Training","bilabial","TrainingItems",1,82,182,86,NA,NA,NA,NA,NA,NA,NA,NA,NA,NA,33,FALSE,19,60.9306872873,"French","American English","VSH_Exp2","2016_Mar_22_1751",NA
"Recordings/pati.wav","no","p","t","a","yes","i","pati","Training","bilabial","TrainingItems",1,83,183,98,NA,NA,NA,NA,NA,NA,NA,NA,NA,NA,33,FALSE,19,60.9306872873,"French","American English","VSH_Exp2","2016_Mar_22_1751",NA
"Recordings/tipi.wav","no","t","p","i","yes","i","tipi","Training","alveolar","TrainingItems",1,84,184,89,NA,NA,NA,NA,NA,NA,NA,NA,NA,NA,33,FALSE,19,60.9306872873,"French","American English","VSH_Exp2","2016_Mar_22_1751",NA
"Recordings/vuza.wav","yes","v","z","u","no","a","vuza","Training","bilabial","TrainingItems",1,85,185,78,NA,NA,NA,NA,NA,NA,NA,NA,NA,NA,33,FALSE,19,60.9306872873,"French","American English","VSH_Exp2","2016_Mar_22_1751",NA
"Recordings/vazu.wav","yes","v","z","a","no","u","vazu","Training","bilabial","TrainingItems",1,86,186,0,NA,NA,NA,NA,NA,NA,NA,NA,NA,NA,33,FALSE,19,60.9306872873,"French","American English","VSH_Exp2","2016_Mar_22_1751",NA
"Recordings/ziza.wav","yes","z","z","i","no","a","ziza","Training","alveolar","TrainingItems",1,87,187,35,NA,NA,NA,NA,NA,NA,NA,NA,NA,NA,33,FALSE,19,60.9306872873,"French","American English","VSH_Exp2","2016_Mar_22_1751",NA
"Recordings/duba.wav","yes","d","b","u","yes","a","duba","Training","alveolar","TrainingItems",1,88,188,62,NA,NA,NA,NA,NA,NA,NA,NA,NA,NA,33,FALSE,19,60.9306872873,"French","American English","VSH_Exp2","2016_Mar_22_1751",NA
"Recordings/dibi.wav","yes","d","b","i","yes","i","dibi","Training","alveolar","TrainingItems",1,89,189,4,NA,NA,NA,NA,NA,NA,NA,NA,NA,NA,33,FALSE,19,60.9306872873,"French","American English","VSH_Exp2","2016_Mar_22_1751",NA
"Recordings/baba.wav","yes","b","b","a","yes","a","baba","Training","bilabial","TrainingItems",1,90,190,58,NA,NA,NA,NA,NA,NA,NA,NA,NA,NA,33,FALSE,19,60.9306872873,"French","American English","VSH_Exp2","2016_Mar_22_1751",NA
"Recordings/dubi.wav","yes","d","b","u","yes","i","dubi","Training","alveolar","TrainingItems",1,91,191,42,NA,NA,NA,NA,NA,NA,NA,NA,NA,NA,33,FALSE,19,60.9306872873,"French","American English","VSH_Exp2","2016_Mar_22_1751",NA
"Recordings/biba.wav","yes","b","b","i","yes","a","biba","Training","bilabial","TrainingItems",1,92,192,2,NA,NA,NA,NA,NA,NA,NA,NA,NA,NA,33,FALSE,19,60.9306872873,"French","American English","VSH_Exp2","2016_Mar_22_1751",NA
"Recordings/bada.wav","yes","b","d","a","yes","a","bada","Training","bilabial","TrainingItems",1,93,193,85,NA,NA,NA,NA,NA,NA,NA,NA,NA,NA,33,FALSE,19,60.9306872873,"French","American English","VSH_Exp2","2016_Mar_22_1751",NA
"Recordings/vivu.wav","yes","v","v","i","no","u","vivu","Training","bilabial","TrainingItems",1,94,194,94,NA,NA,NA,NA,NA,NA,NA,NA,NA,NA,33,FALSE,19,60.9306872873,"French","American English","VSH_Exp2","2016_Mar_22_1751",NA
"Recordings/pupi.wav","no","p","p","u","yes","i","pupi","Training","bilabial","TrainingItems",1,95,195,57,NA,NA,NA,NA,NA,NA,NA,NA,NA,NA,33,FALSE,19,60.9306872873,"French","American English","VSH_Exp2","2016_Mar_22_1751",NA
"Recordings/tupi.wav","no","t","p","u","yes","i","tupi","Training","alveolar","TrainingItems",1,96,196,16,NA,NA,NA,NA,NA,NA,NA,NA,NA,NA,33,FALSE,19,60.9306872873,"French","American English","VSH_Exp2","2016_Mar_22_1751",NA
"Recordings/patu.wav","no","p","t","a","yes","u","patu","Training","bilabial","TrainingItems",1,97,197,61,NA,NA,NA,NA,NA,NA,NA,NA,NA,NA,33,FALSE,19,60.9306872873,"French","American English","VSH_Exp2","2016_Mar_22_1751",NA
"Recordings/pupu.wav","no","p","p","u","yes","u","pupu","Training","bilabial","TrainingItems",1,98,198,84,NA,NA,NA,NA,NA,NA,NA,NA,NA,NA,33,FALSE,19,60.9306872873,"French","American English","VSH_Exp2","2016_Mar_22_1751",NA
"Recordings/tapi.wav","no","t","p","a","yes","i","tapi","Training","alveolar","TrainingItems",1,99,199,70,NA,NA,NA,NA,NA,NA,NA,NA,NA,NA,33,FALSE,19,60.9306872873,"French","American English","VSH_Exp2","2016_Mar_22_1751",NA
NA,NA,NA,NA,NA,NA,NA,NA,NA,NA,NA,NA,NA,NA,NA,NA,NA,NA,NA,NA,NA,"space",3.80388307571,NA,NA,33,FALSE,19,60.9306872873,"French","American English","VSH_Exp2","2016_Mar_22_1751",NA
"Recordings/vasa.wav","yes","v","s","a","no","a","vasa","Controls","bilabial","StopControls",NA,NA,NA,NA,0,0,0,35,NA,NA,NA,NA,"No",7.527,33,FALSE,19,60.9306872873,"French","American English","VSH_Exp2","2016_Mar_22_1751",NA
"Recordings/dabu.wav","yes","d","b","a","yes","u","dabu","Test","alveolar","NewWordTestStimuli",NA,NA,NA,NA,0,1,1,24,NA,NA,NA,NA,"Yes",2.255,33,FALSE,19,60.9306872873,"French","American English","VSH_Exp2","2016_Mar_22_1751",NA
"Recordings/fifu.wav","no","f","f","i","no","u","fifu","Test","bilabial","NewWordTestStimuli",NA,NA,NA,NA,0,2,2,27,NA,NA,NA,NA,"Yes",1.204,33,FALSE,19,60.9306872873,"French","American English","VSH_Exp2","2016_Mar_22_1751",NA
"Recordings/titu.wav","no","t","t","i","yes","u","titu","Test","alveolar","NewWordTestStimuli",NA,NA,NA,NA,0,3,3,28,NA,NA,NA,NA,"No",3.423,33,FALSE,19,60.9306872873,"French","American English","VSH_Exp2","2016_Mar_22_1751",NA
"Recordings/bipa.wav","yes","b","p","i","yes","a","bipa","Controls","bilabial","StopControls",NA,NA,NA,NA,0,4,4,31,NA,NA,NA,NA,"Yes",1.453,33,FALSE,19,60.9306872873,"French","American English","VSH_Exp2","2016_Mar_22_1751",NA
"Recordings/tipi.wav","no","t","p","i","yes","i","tipi","Test","alveolar","OldTestStimuli",NA,NA,NA,NA,0,5,5,8,NA,NA,NA,NA,"No",2.755,33,FALSE,19,60.9306872873,"French","American English","VSH_Exp2","2016_Mar_22_1751",NA
"Recordings/pafi.wav","no","p","f","a","yes","i","pafi","Controls","bilabial","VoicingControls",NA,NA,NA,NA,0,6,6,47,NA,NA,NA,NA,"No",1.704,33,FALSE,19,60.9306872873,"French","American English","VSH_Exp2","2016_Mar_22_1751",NA
"Recordings/zufu.wav","yes","z","f","u","no","u","zufu","Controls","alveolar","StopControls",NA,NA,NA,NA,0,7,7,38,NA,NA,NA,NA,"Yes",1.32,33,FALSE,19,60.9306872873,"French","American English","VSH_Exp2","2016_Mar_22_1751",NA
"Recordings/sifi.wav","no","s","f","i","no","i","sifi","Test","alveolar","NewConsTestStimuli",NA,NA,NA,NA,0,8,8,13,NA,NA,NA,NA,"No",2.454,33,FALSE,19,60.9306872873,"French","American English","VSH_Exp2","2016_Mar_22_1751",NA
"Recordings/tizu.wav","no","t","z","i","yes","u","tizu","Controls","alveolar","NoPatternControls",NA,NA,NA,NA,0,9,9,59,NA,NA,NA,NA,"Yes",1.47,33,FALSE,19,60.9306872873,"French","American English","VSH_Exp2","2016_Mar_22_1751",NA
"Recordings/pita.wav","no","p","t","i","yes","a","pita","Test","bilabial","OldTestStimuli",NA,NA,NA,NA,0,10,10,0,NA,NA,NA,NA,"Yes",0.753,33,FALSE,19,60.9306872873,"French","American English","VSH_Exp2","2016_Mar_22_1751",NA
"Recordings/tafi.wav","no","t","f","a","yes","i","tafi","Controls","alveolar","VoicingControls",NA,NA,NA,NA,0,11,11,40,NA,NA,NA,NA,"No",1.822,33,FALSE,19,60.9306872873,"French","American English","VSH_Exp2","2016_Mar_22_1751",NA
"Recordings/tasi.wav","no","t","s","a","yes","i","tasi","Controls","alveolar","VoicingControls",NA,NA,NA,NA,0,12,12,46,NA,NA,NA,NA,"No",1.37,33,FALSE,19,60.9306872873,"French","American English","VSH_Exp2","2016_Mar_22_1751",NA
"Recordings/zifa.wav","yes","z","f","i","no","a","zifa","Controls","alveolar","StopControls",NA,NA,NA,NA,0,13,13,33,NA,NA,NA,NA,"Yes",1.186,33,FALSE,19,60.9306872873,"French","American English","VSH_Exp2","2016_Mar_22_1751",NA
"Recordings/dufa.wav","yes","d","f","u","yes","a","dufa","Controls","alveolar","NoPatternControls",NA,NA,NA,NA,0,14,14,54,NA,NA,NA,NA,"No",1.17,33,FALSE,19,60.9306872873,"French","American English","VSH_Exp2","2016_Mar_22_1751",NA
"Recordings/tuzi.wav","no","t","z","u","yes","i","tuzi","Controls","alveolar","NoPatternControls",NA,NA,NA,NA,0,15,15,56,NA,NA,NA,NA,"Yes",0.936,33,FALSE,19,60.9306872873,"French","American English","VSH_Exp2","2016_Mar_22_1751",NA
"Recordings/sasi.wav","no","s","s","a","no","i","sasi","Test","alveolar","NewWordTestStimuli",NA,NA,NA,NA,0,16,16,26,NA,NA,NA,NA,"Yes",0.886,33,FALSE,19,60.9306872873,"French","American English","VSH_Exp2","2016_Mar_22_1751",NA
"Recordings/safu.wav","no","s","f","a","no","u","safu","Test","alveolar","NewConsTestStimuli",NA,NA,NA,NA,0,17,17,10,NA,NA,NA,NA,"No",1.638,33,FALSE,19,60.9306872873,"French","American English","VSH_Exp2","2016_Mar_22_1751",NA
"Recordings/bubi.wav","yes","b","b","u","yes","i","bubi","Test","bilabial","NewWordTestStimuli",NA,NA,NA,NA,0,18,18,21,NA,NA,NA,NA,"Yes",1.455,33,FALSE,19,60.9306872873,"French","American English","VSH_Exp2","2016_Mar_22_1751",NA
"Recordings/biva.wav","yes","b","v","i","yes","a","biva","Controls","bilabial","VoicingControls",NA,NA,NA,NA,0,19,19,41,NA,NA,NA,NA,"Yes",0.736,33,FALSE,19,60.9306872873,"French","American English","VSH_Exp2","2016_Mar_22_1751",NA
"Recordings/zubu.wav","yes","z","b","u","no","u","zubu","Controls","alveolar","VoicingControls",NA,NA,NA,NA,0,20,20,48,NA,NA,NA,NA,"Yes",0.92,33,FALSE,19,60.9306872873,"French","American English","VSH_Exp2","2016_Mar_22_1751",NA
"Recordings/tubi.wav","no","t","b","u","yes","i","tubi","Controls","alveolar","StopControls",NA,NA,NA,NA,0,21,21,39,NA,NA,NA,NA,"No",1.303,33,FALSE,19,60.9306872873,"French","American English","VSH_Exp2","2016_Mar_22_1751",NA
"Recordings/vava.wav","yes","v","v","a","no","a","vava","Test","bilabial","NewWordTestStimuli",NA,NA,NA,NA,0,22,22,23,NA,NA,NA,NA,"No",1.103,33,FALSE,19,60.9306872873,"French","American English","VSH_Exp2","2016_Mar_22_1751",NA
"Recordings/vitu.wav","yes","v","t","i","no","u","vitu","Controls","bilabial","NoPatternControls",NA,NA,NA,NA,0,23,23,55,NA,NA,NA,NA,"Yes",1.121,33,FALSE,19,60.9306872873,"French","American English","VSH_Exp2","2016_Mar_22_1751",NA
"Recordings/vazu.wav","yes","v","z","a","no","u","vazu","Test","bilabial","OldTestStimuli",NA,NA,NA,NA,0,24,24,2,NA,NA,NA,NA,"Yes",0.653,33,FALSE,19,60.9306872873,"French","American English","VSH_Exp2","2016_Mar_22_1751",NA
"Recordings/pava.wav","no","p","v","a","yes","a","pava","Controls","bilabial","NoPatternControls",NA,NA,NA,NA,0,25,25,57,NA,NA,NA,NA,"No",1.137,33,FALSE,19,60.9306872873,"French","American English","VSH_Exp2","2016_Mar_22_1751",NA
"Recordings/duba.wav","yes","d","b","u","yes","a","duba","Test","alveolar","OldTestStimuli",NA,NA,NA,NA,0,26,26,6,NA,NA,NA,NA,"Yes",1.121,33,FALSE,19,60.9306872873,"French","American English","VSH_Exp2","2016_Mar_22_1751",NA
"Recordings/bibi.wav","yes","b","b","i","yes","i","bibi","Test","bilabial","NewWordTestStimuli",NA,NA,NA,NA,0,27,27,22,NA,NA,NA,NA,"Yes",0.803,33,FALSE,19,60.9306872873,"French","American English","VSH_Exp2","2016_Mar_22_1751",NA
"Recordings/zipu.wav","yes","z","p","i","no","u","zipu","Controls","alveolar","NoPatternControls",NA,NA,NA,NA,0,28,28,58,NA,NA,NA,NA,"Yes",0.736,33,FALSE,19,60.9306872873,"French","American English","VSH_Exp2","2016_Mar_22_1751",NA
"Recordings/susa.wav","no","s","s","u","no","a","susa","Test","alveolar","NewWordTestStimuli",NA,NA,NA,NA,0,29,29,29,NA,NA,NA,NA,"Yes",0.787,33,FALSE,19,60.9306872873,"French","American English","VSH_Exp2","2016_Mar_22_1751",NA
"Recordings/tisi.wav","no","t","s","i","yes","i","tisi","Controls","alveolar","VoicingControls",NA,NA,NA,NA,0,30,30,49,NA,NA,NA,NA,"No",2.873,33,FALSE,19,60.9306872873,"French","American English","VSH_Exp2","2016_Mar_22_1751",NA
"Recordings/busi.wav","yes","b","s","u","yes","i","busi","Controls","bilabial","NoPatternControls",NA,NA,NA,NA,0,31,31,52,NA,NA,NA,NA,"No",0.804,33,FALSE,19,60.9306872873,"French","American English","VSH_Exp2","2016_Mar_22_1751",NA
"Recordings/sisi.wav","no","s","s","i","no","i","sisi","Test","alveolar","OldTestStimuli",NA,NA,NA,NA,0,32,32,4,NA,NA,NA,NA,"Yes",6.025,33,FALSE,19,60.9306872873,"French","American English","VSH_Exp2","2016_Mar_22_1751",NA
"Recordings/fisa.wav","no","f","s","i","no","a","fisa","Test","bilabial","NewConsTestStimuli",NA,NA,NA,NA,0,33,33,11,NA,NA,NA,NA,"No",1.52,33,FALSE,19,60.9306872873,"French","American English","VSH_Exp2","2016_Mar_22_1751",NA
"Recordings/dati.wav","yes","d","t","a","yes","i","dati","Controls","alveolar","StopControls",NA,NA,NA,NA,0,34,34,34,NA,NA,NA,NA,"No",1.271,33,FALSE,19,60.9306872873,"French","American English","VSH_Exp2","2016_Mar_22_1751",NA
"Recordings/dibi.wav","yes","d","b","i","yes","i","dibi","Test","alveolar","OldTestStimuli",NA,NA,NA,NA,0,35,35,1,NA,NA,NA,NA,"Yes",1.137,33,FALSE,19,60.9306872873,"French","American English","VSH_Exp2","2016_Mar_22_1751",NA
"Recordings/putu.wav","no","p","t","u","yes","u","putu","Test","bilabial","OldTestStimuli",NA,NA,NA,NA,0,36,36,3,NA,NA,NA,NA,"Yes",1.471,33,FALSE,19,60.9306872873,"French","American English","VSH_Exp2","2016_Mar_22_1751",NA
"Recordings/sufu.wav","no","s","f","u","no","u","sufu","Test","alveolar","NewConsTestStimuli",NA,NA,NA,NA,0,37,37,18,NA,NA,NA,NA,"Yes",0.871,33,FALSE,19,60.9306872873,"French","American English","VSH_Exp2","2016_Mar_22_1751",NA
"Recordings/tuti.wav","no","t","t","u","yes","i","tuti","Test","alveolar","OldTestStimuli",NA,NA,NA,NA,0,38,38,7,NA,NA,NA,NA,"Yes",1.12,33,FALSE,19,60.9306872873,"French","American English","VSH_Exp2","2016_Mar_22_1751",NA
"Recordings/ziba.wav","yes","z","b","i","no","a","ziba","Controls","alveolar","VoicingControls",NA,NA,NA,NA,0,39,39,43,NA,NA,NA,NA,"Yes",0.736,33,FALSE,19,60.9306872873,"French","American English","VSH_Exp2","2016_Mar_22_1751",NA
"Recordings/tidi.wav","no","t","d","i","yes","i","tidi","Controls","alveolar","StopControls",NA,NA,NA,NA,0,40,40,36,NA,NA,NA,NA,"Yes",0.703,33,FALSE,19,60.9306872873,"French","American English","VSH_Exp2","2016_Mar_22_1751",NA
"Recordings/fusa.wav","no","f","s","u","no","a","fusa","Test","bilabial","NewConsTestStimuli",NA,NA,NA,NA,0,41,41,17,NA,NA,NA,NA,"No",1.037,33,FALSE,19,60.9306872873,"French","American English","VSH_Exp2","2016_Mar_22_1751",NA
"Recordings/vada.wav","yes","v","d","a","no","a","vada","Controls","bilabial","VoicingControls",NA,NA,NA,NA,0,42,42,45,NA,NA,NA,NA,"Yes",1.971,33,FALSE,19,60.9306872873,"French","American English","VSH_Exp2","2016_Mar_22_1751",NA
"Recordings/didu.wav","yes","d","d","i","yes","u","didu","Test","alveolar","OldTestStimuli",NA,NA,NA,NA,0,43,43,5,NA,NA,NA,NA,"Yes",0.77,33,FALSE,19,60.9306872873,"French","American English","VSH_Exp2","2016_Mar_22_1751",NA
"Recordings/zizu.wav","yes","z","z","i","no","u","zizu","Test","alveolar","NewWordTestStimuli",NA,NA,NA,NA,0,44,44,25,NA,NA,NA,NA,"Yes",0.636,33,FALSE,19,60.9306872873,"French","American English","VSH_Exp2","2016_Mar_22_1751",NA
"Recordings/tata.wav","no","t","t","a","yes","a","tata","Test","alveolar","NewWordTestStimuli",NA,NA,NA,NA,0,45,45,20,NA,NA,NA,NA,"No",2.388,33,FALSE,19,60.9306872873,"French","American English","VSH_Exp2","2016_Mar_22_1751",NA
"Recordings/tuva.wav","no","t","v","u","yes","a","tuva","Controls","alveolar","NoPatternControls",NA,NA,NA,NA,0,46,46,50,NA,NA,NA,NA,"No",1.12,33,FALSE,19,60.9306872873,"French","American English","VSH_Exp2","2016_Mar_22_1751",NA
"Recordings/paba.wav","no","p","b","a","yes","a","paba","Controls","bilabial","StopControls",NA,NA,NA,NA,0,47,47,37,NA,NA,NA,NA,"No",2.356,33,FALSE,19,60.9306872873,"French","American English","VSH_Exp2","2016_Mar_22_1751",NA
"Recordings/busu.wav","yes","b","s","u","yes","u","busu","Controls","bilabial","NoPatternControls",NA,NA,NA,NA,0,48,48,51,NA,NA,NA,NA,"No",0.854,33,FALSE,19,60.9306872873,"French","American English","VSH_Exp2","2016_Mar_22_1751",NA
"Recordings/fasu.wav","no","f","s","a","no","u","fasu","Test","bilabial","NewConsTestStimuli",NA,NA,NA,NA,0,49,49,16,NA,NA,NA,NA,"No",1.404,33,FALSE,19,60.9306872873,"French","American English","VSH_Exp2","2016_Mar_22_1751",NA
"Recordings/zati.wav","yes","z","t","a","no","i","zati","Controls","alveolar","NoPatternControls",NA,NA,NA,NA,0,50,50,53,NA,NA,NA,NA,"No",2.104,33,FALSE,19,60.9306872873,"French","American English","VSH_Exp2","2016_Mar_22_1751",NA
"Recordings/sufa.wav","no","s","f","u","no","a","sufa","Test","alveolar","NewConsTestStimuli",NA,NA,NA,NA,0,51,51,12,NA,NA,NA,NA,"No",1.219,33,FALSE,19,60.9306872873,"French","American English","VSH_Exp2","2016_Mar_22_1751",NA
"Recordings/fasa.wav","no","f","s","a","no","a","fasa","Test","bilabial","NewConsTestStimuli",NA,NA,NA,NA,0,52,52,14,NA,NA,NA,NA,"No",2.872,33,FALSE,19,60.9306872873,"French","American English","VSH_Exp2","2016_Mar_22_1751",NA
"Recordings/safi.wav","no","s","f","a","no","i","safi","Test","alveolar","NewConsTestStimuli",NA,NA,NA,NA,0,53,53,15,NA,NA,NA,NA,"No",2.372,33,FALSE,19,60.9306872873,"French","American English","VSH_Exp2","2016_Mar_22_1751",NA
"Recordings/papi.wav","no","p","p","a","yes","i","papi","Test","bilabial","OldTestStimuli",NA,NA,NA,NA,0,54,54,9,NA,NA,NA,NA,"No",1.821,33,FALSE,19,60.9306872873,"French","American English","VSH_Exp2","2016_Mar_22_1751",NA
"Recordings/tiba.wav","no","t","b","i","yes","a","tiba","Controls","alveolar","StopControls",NA,NA,NA,NA,0,55,55,30,NA,NA,NA,NA,"Yes",1.937,33,FALSE,19,60.9306872873,"French","American English","VSH_Exp2","2016_Mar_22_1751",NA
"Recordings/fusi.wav","no","f","s","u","no","i","fusi","Test","bilabial","NewConsTestStimuli",NA,NA,NA,NA,0,56,56,19,NA,NA,NA,NA,"Yes",1.021,33,FALSE,19,60.9306872873,"French","American English","VSH_Exp2","2016_Mar_22_1751",NA
"Recordings/bapi.wav","yes","b","p","a","yes","i","bapi","Controls","bilabial","StopControls",NA,NA,NA,NA,0,57,57,32,NA,NA,NA,NA,"No",1.503,33,FALSE,19,60.9306872873,"French","American English","VSH_Exp2","2016_Mar_22_1751",NA
"Recordings/dazi.wav","yes","d","z","a","yes","i","dazi","Controls","alveolar","VoicingControls",NA,NA,NA,NA,0,58,58,44,NA,NA,NA,NA,"No",1.12,33,FALSE,19,60.9306872873,"French","American English","VSH_Exp2","2016_Mar_22_1751",NA
"Recordings/bavi.wav","yes","b","v","a","yes","i","bavi","Controls","bilabial","VoicingControls",NA,NA,NA,NA,0,59,59,42,NA,NA,NA,NA,"No",1.054,33,FALSE,19,60.9306872873,"French","American English","VSH_Exp2","2016_Mar_22_1751",NA
