"SOUND","VOICING","SEGMENT","SEGMENT3","SEGMENT2","STOP","SEGMENT4","STIMULUS","GENERAL_TYPE","PLACE","TYPE","trials.thisRepN","trials.thisTrialN","trials.thisN","trials.thisIndex","trials_2.thisRepN","trials_2.thisTrialN","trials_2.thisN","trials_2.thisIndex","SpaceBar.keys","SpaceBar.rt","key_resp_2.keys","key_resp_2.rt","rating.response","rating.rt","participant","Gender","Age","frameRate","OtherLanguages","NativeLanguage","expName","date","X34"
NA,NA,NA,NA,NA,NA,NA,NA,NA,NA,NA,NA,NA,NA,NA,NA,NA,NA,NA,"space",1.82061195374,NA,NA,NA,NA,35,FALSE,18,59.9218814736,NA,"American English","VSH_Exp2","2016_Mar_22_1845",NA
"Recordings/sisa.wav","no","s","s","i","no","a","sisa","Training","alveolar","TrainingItems",0,0,0,80,NA,NA,NA,NA,NA,NA,NA,NA,NA,NA,35,FALSE,18,59.9218814736,NA,"American English","VSH_Exp2","2016_Mar_22_1845",NA
"Recordings/pitu.wav","no","p","t","i","yes","u","pitu","Training","bilabial","TrainingItems",0,1,1,4,NA,NA,NA,NA,NA,NA,NA,NA,NA,NA,35,FALSE,18,59.9218814736,NA,"American English","VSH_Exp2","2016_Mar_22_1845",NA
"Recordings/titi.wav","no","t","t","i","yes","i","titi","Training","alveolar","TrainingItems",0,2,2,33,NA,NA,NA,NA,NA,NA,NA,NA,NA,NA,35,FALSE,18,59.9218814736,NA,"American English","VSH_Exp2","2016_Mar_22_1845",NA
"Recordings/budu.wav","yes","b","d","u","yes","u","budu","Training","bilabial","TrainingItems",0,3,3,47,NA,NA,NA,NA,NA,NA,NA,NA,NA,NA,35,FALSE,18,59.9218814736,NA,"American English","VSH_Exp2","2016_Mar_22_1845",NA
"Recordings/zazu.wav","yes","z","z","a","no","u","zazu","Training","alveolar","TrainingItems",0,4,4,2,NA,NA,NA,NA,NA,NA,NA,NA,NA,NA,35,FALSE,18,59.9218814736,NA,"American English","VSH_Exp2","2016_Mar_22_1845",NA
"Recordings/puta.wav","no","p","t","u","yes","a","puta","Training","bilabial","TrainingItems",0,5,5,8,NA,NA,NA,NA,NA,NA,NA,NA,NA,NA,35,FALSE,18,59.9218814736,NA,"American English","VSH_Exp2","2016_Mar_22_1845",NA
"Recordings/dada.wav","yes","d","d","a","yes","a","dada","Training","alveolar","TrainingItems",0,6,6,26,NA,NA,NA,NA,NA,NA,NA,NA,NA,NA,35,FALSE,18,59.9218814736,NA,"American English","VSH_Exp2","2016_Mar_22_1845",NA
"Recordings/baba.wav","yes","b","b","a","yes","a","baba","Training","bilabial","TrainingItems",0,7,7,6,NA,NA,NA,NA,NA,NA,NA,NA,NA,NA,35,FALSE,18,59.9218814736,NA,"American English","VSH_Exp2","2016_Mar_22_1845",NA
"Recordings/sufu.wav","no","s","f","u","no","u","sufu","Training","alveolar","TrainingItems",0,8,8,82,NA,NA,NA,NA,NA,NA,NA,NA,NA,NA,35,FALSE,18,59.9218814736,NA,"American English","VSH_Exp2","2016_Mar_22_1845",NA
"Recordings/fusi.wav","no","f","s","u","no","i","fusi","Training","bilabial","TrainingItems",0,9,9,31,NA,NA,NA,NA,NA,NA,NA,NA,NA,NA,35,FALSE,18,59.9218814736,NA,"American English","VSH_Exp2","2016_Mar_22_1845",NA
"Recordings/safi.wav","no","s","f","a","no","i","safi","Training","alveolar","TrainingItems",0,10,10,62,NA,NA,NA,NA,NA,NA,NA,NA,NA,NA,35,FALSE,18,59.9218814736,NA,"American English","VSH_Exp2","2016_Mar_22_1845",NA
"Recordings/bidi.wav","yes","b","d","i","yes","i","bidi","Training","bilabial","TrainingItems",0,11,11,1,NA,NA,NA,NA,NA,NA,NA,NA,NA,NA,35,FALSE,18,59.9218814736,NA,"American English","VSH_Exp2","2016_Mar_22_1845",NA
"Recordings/tupi.wav","no","t","p","u","yes","i","tupi","Training","alveolar","TrainingItems",0,12,12,66,NA,NA,NA,NA,NA,NA,NA,NA,NA,NA,35,FALSE,18,59.9218814736,NA,"American English","VSH_Exp2","2016_Mar_22_1845",NA
"Recordings/fifi.wav","no","f","f","i","no","i","fifi","Training","bilabial","TrainingItems",0,13,13,42,NA,NA,NA,NA,NA,NA,NA,NA,NA,NA,35,FALSE,18,59.9218814736,NA,"American English","VSH_Exp2","2016_Mar_22_1845",NA
"Recordings/fusa.wav","no","f","s","u","no","a","fusa","Training","bilabial","TrainingItems",0,14,14,94,NA,NA,NA,NA,NA,NA,NA,NA,NA,NA,35,FALSE,18,59.9218814736,NA,"American English","VSH_Exp2","2016_Mar_22_1845",NA
"Recordings/tapa.wav","no","t","p","a","yes","a","tapa","Training","alveolar","TrainingItems",0,15,15,72,NA,NA,NA,NA,NA,NA,NA,NA,NA,NA,35,FALSE,18,59.9218814736,NA,"American English","VSH_Exp2","2016_Mar_22_1845",NA
"Recordings/fifu.wav","no","f","f","i","no","u","fifu","Training","bilabial","TrainingItems",0,16,16,79,NA,NA,NA,NA,NA,NA,NA,NA,NA,NA,35,FALSE,18,59.9218814736,NA,"American English","VSH_Exp2","2016_Mar_22_1845",NA
"Recordings/dubu.wav","yes","d","b","u","yes","u","dubu","Training","alveolar","TrainingItems",0,17,17,0,NA,NA,NA,NA,NA,NA,NA,NA,NA,NA,35,FALSE,18,59.9218814736,NA,"American English","VSH_Exp2","2016_Mar_22_1845",NA
"Recordings/tipi.wav","no","t","p","i","yes","i","tipi","Training","alveolar","TrainingItems",0,18,18,3,NA,NA,NA,NA,NA,NA,NA,NA,NA,NA,35,FALSE,18,59.9218814736,NA,"American English","VSH_Exp2","2016_Mar_22_1845",NA
"Recordings/vava.wav","yes","v","v","a","no","a","vava","Training","bilabial","TrainingItems",0,19,19,27,NA,NA,NA,NA,NA,NA,NA,NA,NA,NA,35,FALSE,18,59.9218814736,NA,"American English","VSH_Exp2","2016_Mar_22_1845",NA
"Recordings/sufa.wav","no","s","f","u","no","a","sufa","Training","alveolar","TrainingItems",0,20,20,37,NA,NA,NA,NA,NA,NA,NA,NA,NA,NA,35,FALSE,18,59.9218814736,NA,"American English","VSH_Exp2","2016_Mar_22_1845",NA
"Recordings/dabi.wav","yes","d","b","a","yes","i","dabi","Training","alveolar","TrainingItems",0,21,21,64,NA,NA,NA,NA,NA,NA,NA,NA,NA,NA,35,FALSE,18,59.9218814736,NA,"American English","VSH_Exp2","2016_Mar_22_1845",NA
"Recordings/fasa.wav","no","f","s","a","no","a","fasa","Training","bilabial","TrainingItems",0,22,22,92,NA,NA,NA,NA,NA,NA,NA,NA,NA,NA,35,FALSE,18,59.9218814736,NA,"American English","VSH_Exp2","2016_Mar_22_1845",NA
"Recordings/bibu.wav","yes","b","b","i","yes","u","bibu","Training","bilabial","TrainingItems",0,23,23,39,NA,NA,NA,NA,NA,NA,NA,NA,NA,NA,35,FALSE,18,59.9218814736,NA,"American English","VSH_Exp2","2016_Mar_22_1845",NA
"Recordings/dadi.wav","yes","d","d","a","yes","i","dadi","Training","alveolar","TrainingItems",0,24,24,49,NA,NA,NA,NA,NA,NA,NA,NA,NA,NA,35,FALSE,18,59.9218814736,NA,"American English","VSH_Exp2","2016_Mar_22_1845",NA
"Recordings/tipu.wav","no","t","p","i","yes","u","tipu","Training","alveolar","TrainingItems",0,25,25,18,NA,NA,NA,NA,NA,NA,NA,NA,NA,NA,35,FALSE,18,59.9218814736,NA,"American English","VSH_Exp2","2016_Mar_22_1845",NA
"Recordings/zaza.wav","yes","z","z","a","no","a","zaza","Training","alveolar","TrainingItems",0,26,26,54,NA,NA,NA,NA,NA,NA,NA,NA,NA,NA,35,FALSE,18,59.9218814736,NA,"American English","VSH_Exp2","2016_Mar_22_1845",NA
"Recordings/pupu.wav","no","p","p","u","yes","u","pupu","Training","bilabial","TrainingItems",0,27,27,88,NA,NA,NA,NA,NA,NA,NA,NA,NA,NA,35,FALSE,18,59.9218814736,NA,"American English","VSH_Exp2","2016_Mar_22_1845",NA
"Recordings/pipi.wav","no","p","p","i","yes","i","pipi","Training","bilabial","TrainingItems",0,28,28,96,NA,NA,NA,NA,NA,NA,NA,NA,NA,NA,35,FALSE,18,59.9218814736,NA,"American English","VSH_Exp2","2016_Mar_22_1845",NA
"Recordings/safu.wav","no","s","f","a","no","u","safu","Training","alveolar","TrainingItems",0,29,29,76,NA,NA,NA,NA,NA,NA,NA,NA,NA,NA,35,FALSE,18,59.9218814736,NA,"American English","VSH_Exp2","2016_Mar_22_1845",NA
"Recordings/bubu.wav","yes","b","b","u","yes","u","bubu","Training","bilabial","TrainingItems",0,30,30,30,NA,NA,NA,NA,NA,NA,NA,NA,NA,NA,35,FALSE,18,59.9218814736,NA,"American English","VSH_Exp2","2016_Mar_22_1845",NA
"Recordings/tupu.wav","no","t","p","u","yes","u","tupu","Training","alveolar","TrainingItems",0,31,31,95,NA,NA,NA,NA,NA,NA,NA,NA,NA,NA,35,FALSE,18,59.9218814736,NA,"American English","VSH_Exp2","2016_Mar_22_1845",NA
"Recordings/papa.wav","no","p","p","a","yes","a","papa","Training","bilabial","TrainingItems",0,32,32,41,NA,NA,NA,NA,NA,NA,NA,NA,NA,NA,35,FALSE,18,59.9218814736,NA,"American English","VSH_Exp2","2016_Mar_22_1845",NA
"Recordings/tuti.wav","no","t","t","u","yes","i","tuti","Training","alveolar","TrainingItems",0,33,33,84,NA,NA,NA,NA,NA,NA,NA,NA,NA,NA,35,FALSE,18,59.9218814736,NA,"American English","VSH_Exp2","2016_Mar_22_1845",NA
"Recordings/vuva.wav","yes","v","v","u","no","a","vuva","Training","bilabial","TrainingItems",0,34,34,59,NA,NA,NA,NA,NA,NA,NA,NA,NA,NA,35,FALSE,18,59.9218814736,NA,"American English","VSH_Exp2","2016_Mar_22_1845",NA
"Recordings/zazi.wav","yes","z","z","a","no","i","zazi","Training","alveolar","TrainingItems",0,35,35,35,NA,NA,NA,NA,NA,NA,NA,NA,NA,NA,35,FALSE,18,59.9218814736,NA,"American English","VSH_Exp2","2016_Mar_22_1845",NA
"Recordings/dida.wav","yes","d","d","i","yes","a","dida","Training","alveolar","TrainingItems",0,36,36,44,NA,NA,NA,NA,NA,NA,NA,NA,NA,NA,35,FALSE,18,59.9218814736,NA,"American English","VSH_Exp2","2016_Mar_22_1845",NA
"Recordings/fufu.wav","no","f","f","u","no","u","fufu","Training","bilabial","TrainingItems",0,37,37,36,NA,NA,NA,NA,NA,NA,NA,NA,NA,NA,35,FALSE,18,59.9218814736,NA,"American English","VSH_Exp2","2016_Mar_22_1845",NA
"Recordings/fusu.wav","no","f","s","u","no","u","fusu","Training","bilabial","TrainingItems",0,38,38,56,NA,NA,NA,NA,NA,NA,NA,NA,NA,NA,35,FALSE,18,59.9218814736,NA,"American English","VSH_Exp2","2016_Mar_22_1845",NA
"Recordings/susi.wav","no","s","s","u","no","i","susi","Training","alveolar","TrainingItems",0,39,39,17,NA,NA,NA,NA,NA,NA,NA,NA,NA,NA,35,FALSE,18,59.9218814736,NA,"American English","VSH_Exp2","2016_Mar_22_1845",NA
"Recordings/tipa.wav","no","t","p","i","yes","a","tipa","Training","alveolar","TrainingItems",0,40,40,63,NA,NA,NA,NA,NA,NA,NA,NA,NA,NA,35,FALSE,18,59.9218814736,NA,"American English","VSH_Exp2","2016_Mar_22_1845",NA
"Recordings/tita.wav","no","t","t","i","yes","a","tita","Training","alveolar","TrainingItems",0,41,41,5,NA,NA,NA,NA,NA,NA,NA,NA,NA,NA,35,FALSE,18,59.9218814736,NA,"American English","VSH_Exp2","2016_Mar_22_1845",NA
"Recordings/bubi.wav","yes","b","b","u","yes","i","bubi","Training","bilabial","TrainingItems",0,42,42,71,NA,NA,NA,NA,NA,NA,NA,NA,NA,NA,35,FALSE,18,59.9218814736,NA,"American English","VSH_Exp2","2016_Mar_22_1845",NA
"Recordings/fasu.wav","no","f","s","a","no","u","fasu","Training","bilabial","TrainingItems",0,43,43,90,NA,NA,NA,NA,NA,NA,NA,NA,NA,NA,35,FALSE,18,59.9218814736,NA,"American English","VSH_Exp2","2016_Mar_22_1845",NA
"Recordings/titu.wav","no","t","t","i","yes","u","titu","Training","alveolar","TrainingItems",0,44,44,83,NA,NA,NA,NA,NA,NA,NA,NA,NA,NA,35,FALSE,18,59.9218814736,NA,"American English","VSH_Exp2","2016_Mar_22_1845",NA
"Recordings/dudi.wav","yes","d","d","u","yes","i","dudi","Training","alveolar","TrainingItems",0,45,45,78,NA,NA,NA,NA,NA,NA,NA,NA,NA,NA,35,FALSE,18,59.9218814736,NA,"American English","VSH_Exp2","2016_Mar_22_1845",NA
"Recordings/fifa.wav","no","f","f","i","no","a","fifa","Training","bilabial","TrainingItems",0,46,46,22,NA,NA,NA,NA,NA,NA,NA,NA,NA,NA,35,FALSE,18,59.9218814736,NA,"American English","VSH_Exp2","2016_Mar_22_1845",NA
"Recordings/diba.wav","yes","d","b","i","yes","a","diba","Training","alveolar","TrainingItems",0,47,47,61,NA,NA,NA,NA,NA,NA,NA,NA,NA,NA,35,FALSE,18,59.9218814736,NA,"American English","VSH_Exp2","2016_Mar_22_1845",NA
"Recordings/fafu.wav","no","f","f","a","no","u","fafu","Training","bilabial","TrainingItems",0,48,48,24,NA,NA,NA,NA,NA,NA,NA,NA,NA,NA,35,FALSE,18,59.9218814736,NA,"American English","VSH_Exp2","2016_Mar_22_1845",NA
"Recordings/fisu.wav","no","f","s","i","no","u","fisu","Training","bilabial","TrainingItems",0,49,49,53,NA,NA,NA,NA,NA,NA,NA,NA,NA,NA,35,FALSE,18,59.9218814736,NA,"American English","VSH_Exp2","2016_Mar_22_1845",NA
"Recordings/tutu.wav","no","t","t","u","yes","u","tutu","Training","alveolar","TrainingItems",0,50,50,74,NA,NA,NA,NA,NA,NA,NA,NA,NA,NA,35,FALSE,18,59.9218814736,NA,"American English","VSH_Exp2","2016_Mar_22_1845",NA
"Recordings/vavi.wav","yes","v","v","a","no","i","vavi","Training","bilabial","TrainingItems",0,51,51,91,NA,NA,NA,NA,NA,NA,NA,NA,NA,NA,35,FALSE,18,59.9218814736,NA,"American English","VSH_Exp2","2016_Mar_22_1845",NA
"Recordings/tuta.wav","no","t","t","u","yes","a","tuta","Training","alveolar","TrainingItems",0,52,52,67,NA,NA,NA,NA,NA,NA,NA,NA,NA,NA,35,FALSE,18,59.9218814736,NA,"American English","VSH_Exp2","2016_Mar_22_1845",NA
"Recordings/babu.wav","yes","b","b","a","yes","u","babu","Training","bilabial","TrainingItems",0,53,53,57,NA,NA,NA,NA,NA,NA,NA,NA,NA,NA,35,FALSE,18,59.9218814736,NA,"American English","VSH_Exp2","2016_Mar_22_1845",NA
"Recordings/daba.wav","yes","d","b","a","yes","a","daba","Training","alveolar","TrainingItems",0,54,54,38,NA,NA,NA,NA,NA,NA,NA,NA,NA,NA,35,FALSE,18,59.9218814736,NA,"American English","VSH_Exp2","2016_Mar_22_1845",NA
"Recordings/sisi.wav","no","s","s","i","no","i","sisi","Training","alveolar","TrainingItems",0,55,55,73,NA,NA,NA,NA,NA,NA,NA,NA,NA,NA,35,FALSE,18,59.9218814736,NA,"American English","VSH_Exp2","2016_Mar_22_1845",NA
"Recordings/papu.wav","no","p","p","a","yes","u","papu","Training","bilabial","TrainingItems",0,56,56,58,NA,NA,NA,NA,NA,NA,NA,NA,NA,NA,35,FALSE,18,59.9218814736,NA,"American English","VSH_Exp2","2016_Mar_22_1845",NA
"Recordings/fafa.wav","no","f","f","a","no","a","fafa","Training","bilabial","TrainingItems",0,57,57,19,NA,NA,NA,NA,NA,NA,NA,NA,NA,NA,35,FALSE,18,59.9218814736,NA,"American English","VSH_Exp2","2016_Mar_22_1845",NA
"Recordings/didi.wav","yes","d","d","i","yes","i","didi","Training","alveolar","TrainingItems",0,58,58,77,NA,NA,NA,NA,NA,NA,NA,NA,NA,NA,35,FALSE,18,59.9218814736,NA,"American English","VSH_Exp2","2016_Mar_22_1845",NA
"Recordings/tatu.wav","no","t","t","a","yes","u","tatu","Training","alveolar","TrainingItems",0,59,59,87,NA,NA,NA,NA,NA,NA,NA,NA,NA,NA,35,FALSE,18,59.9218814736,NA,"American English","VSH_Exp2","2016_Mar_22_1845",NA
"Recordings/buda.wav","yes","b","d","u","yes","a","buda","Training","bilabial","TrainingItems",0,60,60,50,NA,NA,NA,NA,NA,NA,NA,NA,NA,NA,35,FALSE,18,59.9218814736,NA,"American English","VSH_Exp2","2016_Mar_22_1845",NA
"Recordings/ziza.wav","yes","z","z","i","no","a","ziza","Training","alveolar","TrainingItems",0,61,61,7,NA,NA,NA,NA,NA,NA,NA,NA,NA,NA,35,FALSE,18,59.9218814736,NA,"American English","VSH_Exp2","2016_Mar_22_1845",NA
"Recordings/zuzu.wav","yes","z","z","u","no","u","zuzu","Training","alveolar","TrainingItems",0,62,62,81,NA,NA,NA,NA,NA,NA,NA,NA,NA,NA,35,FALSE,18,59.9218814736,NA,"American English","VSH_Exp2","2016_Mar_22_1845",NA
"Recordings/fisi.wav","no","f","s","i","no","i","fisi","Training","bilabial","TrainingItems",0,63,63,85,NA,NA,NA,NA,NA,NA,NA,NA,NA,NA,35,FALSE,18,59.9218814736,NA,"American English","VSH_Exp2","2016_Mar_22_1845",NA
"Recordings/safa.wav","no","s","f","a","no","a","safa","Training","alveolar","TrainingItems",0,64,64,9,NA,NA,NA,NA,NA,NA,NA,NA,NA,NA,35,FALSE,18,59.9218814736,NA,"American English","VSH_Exp2","2016_Mar_22_1845",NA
"Recordings/susu.wav","no","s","s","u","no","u","susu","Training","alveolar","TrainingItems",0,65,65,45,NA,NA,NA,NA,NA,NA,NA,NA,NA,NA,35,FALSE,18,59.9218814736,NA,"American English","VSH_Exp2","2016_Mar_22_1845",NA
"Recordings/badu.wav","yes","b","d","a","yes","u","badu","Training","bilabial","TrainingItems",0,66,66,15,NA,NA,NA,NA,NA,NA,NA,NA,NA,NA,35,FALSE,18,59.9218814736,NA,"American English","VSH_Exp2","2016_Mar_22_1845",NA
"Recordings/patu.wav","no","p","t","a","yes","u","patu","Training","bilabial","TrainingItems",0,67,67,86,NA,NA,NA,NA,NA,NA,NA,NA,NA,NA,35,FALSE,18,59.9218814736,NA,"American English","VSH_Exp2","2016_Mar_22_1845",NA
"Recordings/badi.wav","yes","b","d","a","yes","i","badi","Training","bilabial","TrainingItems",0,68,68,23,NA,NA,NA,NA,NA,NA,NA,NA,NA,NA,35,FALSE,18,59.9218814736,NA,"American English","VSH_Exp2","2016_Mar_22_1845",NA
"Recordings/pupa.wav","no","p","p","u","yes","a","pupa","Training","bilabial","TrainingItems",0,69,69,48,NA,NA,NA,NA,NA,NA,NA,NA,NA,NA,35,FALSE,18,59.9218814736,NA,"American English","VSH_Exp2","2016_Mar_22_1845",NA
"Recordings/pipa.wav","no","p","p","i","yes","a","pipa","Training","bilabial","TrainingItems",0,70,70,40,NA,NA,NA,NA,NA,NA,NA,NA,NA,NA,35,FALSE,18,59.9218814736,NA,"American English","VSH_Exp2","2016_Mar_22_1845",NA
"Recordings/dadu.wav","yes","d","d","a","yes","u","dadu","Training","alveolar","TrainingItems",0,71,71,75,NA,NA,NA,NA,NA,NA,NA,NA,NA,NA,35,FALSE,18,59.9218814736,NA,"American English","VSH_Exp2","2016_Mar_22_1845",NA
"Recordings/vuvu.wav","yes","v","v","u","no","u","vuvu","Training","bilabial","TrainingItems",0,72,72,98,NA,NA,NA,NA,NA,NA,NA,NA,NA,NA,35,FALSE,18,59.9218814736,NA,"American English","VSH_Exp2","2016_Mar_22_1845",NA
"Recordings/budi.wav","yes","b","d","u","yes","i","budi","Training","bilabial","TrainingItems",0,73,73,51,NA,NA,NA,NA,NA,NA,NA,NA,NA,NA,35,FALSE,18,59.9218814736,NA,"American English","VSH_Exp2","2016_Mar_22_1845",NA
"Recordings/sasu.wav","no","s","s","a","no","u","sasu","Training","alveolar","TrainingItems",0,74,74,97,NA,NA,NA,NA,NA,NA,NA,NA,NA,NA,35,FALSE,18,59.9218814736,NA,"American English","VSH_Exp2","2016_Mar_22_1845",NA
"Recordings/pupi.wav","no","p","p","u","yes","i","pupi","Training","bilabial","TrainingItems",0,75,75,12,NA,NA,NA,NA,NA,NA,NA,NA,NA,NA,35,FALSE,18,59.9218814736,NA,"American English","VSH_Exp2","2016_Mar_22_1845",NA
"Recordings/tupa.wav","no","t","p","u","yes","a","tupa","Training","alveolar","TrainingItems",0,76,76,28,NA,NA,NA,NA,NA,NA,NA,NA,NA,NA,35,FALSE,18,59.9218814736,NA,"American English","VSH_Exp2","2016_Mar_22_1845",NA
"Recordings/pita.wav","no","p","t","i","yes","a","pita","Training","bilabial","TrainingItems",0,77,77,99,NA,NA,NA,NA,NA,NA,NA,NA,NA,NA,35,FALSE,18,59.9218814736,NA,"American English","VSH_Exp2","2016_Mar_22_1845",NA
"Recordings/piti.wav","no","p","t","i","yes","i","piti","Training","bilabial","TrainingItems",0,78,78,16,NA,NA,NA,NA,NA,NA,NA,NA,NA,NA,35,FALSE,18,59.9218814736,NA,"American English","VSH_Exp2","2016_Mar_22_1845",NA
"Recordings/puti.wav","no","p","t","u","yes","i","puti","Training","bilabial","TrainingItems",0,79,79,20,NA,NA,NA,NA,NA,NA,NA,NA,NA,NA,35,FALSE,18,59.9218814736,NA,"American English","VSH_Exp2","2016_Mar_22_1845",NA
"Recordings/fisa.wav","no","f","s","i","no","a","fisa","Training","bilabial","TrainingItems",0,80,80,32,NA,NA,NA,NA,NA,NA,NA,NA,NA,NA,35,FALSE,18,59.9218814736,NA,"American English","VSH_Exp2","2016_Mar_22_1845",NA
"Recordings/tati.wav","no","t","t","a","yes","i","tati","Training","alveolar","TrainingItems",0,81,81,43,NA,NA,NA,NA,NA,NA,NA,NA,NA,NA,35,FALSE,18,59.9218814736,NA,"American English","VSH_Exp2","2016_Mar_22_1845",NA
"Recordings/dibi.wav","yes","d","b","i","yes","i","dibi","Training","alveolar","TrainingItems",0,82,82,25,NA,NA,NA,NA,NA,NA,NA,NA,NA,NA,35,FALSE,18,59.9218814736,NA,"American English","VSH_Exp2","2016_Mar_22_1845",NA
"Recordings/buba.wav","yes","b","b","u","yes","a","buba","Training","bilabial","TrainingItems",0,83,83,10,NA,NA,NA,NA,NA,NA,NA,NA,NA,NA,35,FALSE,18,59.9218814736,NA,"American English","VSH_Exp2","2016_Mar_22_1845",NA
"Recordings/dubi.wav","yes","d","b","u","yes","i","dubi","Training","alveolar","TrainingItems",0,84,84,69,NA,NA,NA,NA,NA,NA,NA,NA,NA,NA,35,FALSE,18,59.9218814736,NA,"American English","VSH_Exp2","2016_Mar_22_1845",NA
"Recordings/zuzi.wav","yes","z","z","u","no","i","zuzi","Training","alveolar","TrainingItems",0,85,85,55,NA,NA,NA,NA,NA,NA,NA,NA,NA,NA,35,FALSE,18,59.9218814736,NA,"American English","VSH_Exp2","2016_Mar_22_1845",NA
"Recordings/bidu.wav","yes","b","d","i","yes","u","bidu","Training","bilabial","TrainingItems",0,86,86,68,NA,NA,NA,NA,NA,NA,NA,NA,NA,NA,35,FALSE,18,59.9218814736,NA,"American English","VSH_Exp2","2016_Mar_22_1845",NA
"Recordings/sasa.wav","no","s","s","a","no","a","sasa","Training","alveolar","TrainingItems",0,87,87,89,NA,NA,NA,NA,NA,NA,NA,NA,NA,NA,35,FALSE,18,59.9218814736,NA,"American English","VSH_Exp2","2016_Mar_22_1845",NA
"Recordings/tata.wav","no","t","t","a","yes","a","tata","Training","alveolar","TrainingItems",0,88,88,46,NA,NA,NA,NA,NA,NA,NA,NA,NA,NA,35,FALSE,18,59.9218814736,NA,"American English","VSH_Exp2","2016_Mar_22_1845",NA
"Recordings/didu.wav","yes","d","d","i","yes","u","didu","Training","alveolar","TrainingItems",0,89,89,65,NA,NA,NA,NA,NA,NA,NA,NA,NA,NA,35,FALSE,18,59.9218814736,NA,"American English","VSH_Exp2","2016_Mar_22_1845",NA
"Recordings/sasi.wav","no","s","s","a","no","i","sasi","Training","alveolar","TrainingItems",0,90,90,34,NA,NA,NA,NA,NA,NA,NA,NA,NA,NA,35,FALSE,18,59.9218814736,NA,"American English","VSH_Exp2","2016_Mar_22_1845",NA
"Recordings/pipu.wav","no","p","p","i","yes","u","pipu","Training","bilabial","TrainingItems",0,91,91,60,NA,NA,NA,NA,NA,NA,NA,NA,NA,NA,35,FALSE,18,59.9218814736,NA,"American English","VSH_Exp2","2016_Mar_22_1845",NA
"Recordings/tapi.wav","no","t","p","a","yes","i","tapi","Training","alveolar","TrainingItems",0,92,92,11,NA,NA,NA,NA,NA,NA,NA,NA,NA,NA,35,FALSE,18,59.9218814736,NA,"American English","VSH_Exp2","2016_Mar_22_1845",NA
"Recordings/sifi.wav","no","s","f","i","no","i","sifi","Training","alveolar","TrainingItems",0,93,93,13,NA,NA,NA,NA,NA,NA,NA,NA,NA,NA,35,FALSE,18,59.9218814736,NA,"American English","VSH_Exp2","2016_Mar_22_1845",NA
"Recordings/zizi.wav","yes","z","z","i","no","i","zizi","Training","alveolar","TrainingItems",0,94,94,52,NA,NA,NA,NA,NA,NA,NA,NA,NA,NA,35,FALSE,18,59.9218814736,NA,"American English","VSH_Exp2","2016_Mar_22_1845",NA
"Recordings/pati.wav","no","p","t","a","yes","i","pati","Training","bilabial","TrainingItems",0,95,95,14,NA,NA,NA,NA,NA,NA,NA,NA,NA,NA,35,FALSE,18,59.9218814736,NA,"American English","VSH_Exp2","2016_Mar_22_1845",NA
"Recordings/zuza.wav","yes","z","z","u","no","a","zuza","Training","alveolar","TrainingItems",0,96,96,93,NA,NA,NA,NA,NA,NA,NA,NA,NA,NA,35,FALSE,18,59.9218814736,NA,"American English","VSH_Exp2","2016_Mar_22_1845",NA
"Recordings/bada.wav","yes","b","d","a","yes","a","bada","Training","bilabial","TrainingItems",0,97,97,21,NA,NA,NA,NA,NA,NA,NA,NA,NA,NA,35,FALSE,18,59.9218814736,NA,"American English","VSH_Exp2","2016_Mar_22_1845",NA
"Recordings/fasi.wav","no","f","s","a","no","i","fasi","Training","bilabial","TrainingItems",0,98,98,29,NA,NA,NA,NA,NA,NA,NA,NA,NA,NA,35,FALSE,18,59.9218814736,NA,"American English","VSH_Exp2","2016_Mar_22_1845",NA
"Recordings/tapu.wav","no","t","p","a","yes","u","tapu","Training","alveolar","TrainingItems",0,99,99,70,NA,NA,NA,NA,NA,NA,NA,NA,NA,NA,35,FALSE,18,59.9218814736,NA,"American English","VSH_Exp2","2016_Mar_22_1845",NA
"Recordings/sasi.wav","no","s","s","a","no","i","sasi","Training","alveolar","TrainingItems",1,0,100,34,NA,NA,NA,NA,NA,NA,NA,NA,NA,NA,35,FALSE,18,59.9218814736,NA,"American English","VSH_Exp2","2016_Mar_22_1845",NA
"Recordings/pipi.wav","no","p","p","i","yes","i","pipi","Training","bilabial","TrainingItems",1,1,101,96,NA,NA,NA,NA,NA,NA,NA,NA,NA,NA,35,FALSE,18,59.9218814736,NA,"American English","VSH_Exp2","2016_Mar_22_1845",NA
"Recordings/tata.wav","no","t","t","a","yes","a","tata","Training","alveolar","TrainingItems",1,2,102,46,NA,NA,NA,NA,NA,NA,NA,NA,NA,NA,35,FALSE,18,59.9218814736,NA,"American English","VSH_Exp2","2016_Mar_22_1845",NA
"Recordings/tati.wav","no","t","t","a","yes","i","tati","Training","alveolar","TrainingItems",1,3,103,43,NA,NA,NA,NA,NA,NA,NA,NA,NA,NA,35,FALSE,18,59.9218814736,NA,"American English","VSH_Exp2","2016_Mar_22_1845",NA
"Recordings/fafu.wav","no","f","f","a","no","u","fafu","Training","bilabial","TrainingItems",1,4,104,24,NA,NA,NA,NA,NA,NA,NA,NA,NA,NA,35,FALSE,18,59.9218814736,NA,"American English","VSH_Exp2","2016_Mar_22_1845",NA
"Recordings/susi.wav","no","s","s","u","no","i","susi","Training","alveolar","TrainingItems",1,5,105,17,NA,NA,NA,NA,NA,NA,NA,NA,NA,NA,35,FALSE,18,59.9218814736,NA,"American English","VSH_Exp2","2016_Mar_22_1845",NA
"Recordings/buba.wav","yes","b","b","u","yes","a","buba","Training","bilabial","TrainingItems",1,6,106,10,NA,NA,NA,NA,NA,NA,NA,NA,NA,NA,35,FALSE,18,59.9218814736,NA,"American English","VSH_Exp2","2016_Mar_22_1845",NA
"Recordings/zazu.wav","yes","z","z","a","no","u","zazu","Training","alveolar","TrainingItems",1,7,107,2,NA,NA,NA,NA,NA,NA,NA,NA,NA,NA,35,FALSE,18,59.9218814736,NA,"American English","VSH_Exp2","2016_Mar_22_1845",NA
"Recordings/dida.wav","yes","d","d","i","yes","a","dida","Training","alveolar","TrainingItems",1,8,108,44,NA,NA,NA,NA,NA,NA,NA,NA,NA,NA,35,FALSE,18,59.9218814736,NA,"American English","VSH_Exp2","2016_Mar_22_1845",NA
"Recordings/zuzi.wav","yes","z","z","u","no","i","zuzi","Training","alveolar","TrainingItems",1,9,109,55,NA,NA,NA,NA,NA,NA,NA,NA,NA,NA,35,FALSE,18,59.9218814736,NA,"American English","VSH_Exp2","2016_Mar_22_1845",NA
"Recordings/pipa.wav","no","p","p","i","yes","a","pipa","Training","bilabial","TrainingItems",1,10,110,40,NA,NA,NA,NA,NA,NA,NA,NA,NA,NA,35,FALSE,18,59.9218814736,NA,"American English","VSH_Exp2","2016_Mar_22_1845",NA
"Recordings/bada.wav","yes","b","d","a","yes","a","bada","Training","bilabial","TrainingItems",1,11,111,21,NA,NA,NA,NA,NA,NA,NA,NA,NA,NA,35,FALSE,18,59.9218814736,NA,"American English","VSH_Exp2","2016_Mar_22_1845",NA
"Recordings/zuza.wav","yes","z","z","u","no","a","zuza","Training","alveolar","TrainingItems",1,12,112,93,NA,NA,NA,NA,NA,NA,NA,NA,NA,NA,35,FALSE,18,59.9218814736,NA,"American English","VSH_Exp2","2016_Mar_22_1845",NA
"Recordings/fafa.wav","no","f","f","a","no","a","fafa","Training","bilabial","TrainingItems",1,13,113,19,NA,NA,NA,NA,NA,NA,NA,NA,NA,NA,35,FALSE,18,59.9218814736,NA,"American English","VSH_Exp2","2016_Mar_22_1845",NA
"Recordings/fusi.wav","no","f","s","u","no","i","fusi","Training","bilabial","TrainingItems",1,14,114,31,NA,NA,NA,NA,NA,NA,NA,NA,NA,NA,35,FALSE,18,59.9218814736,NA,"American English","VSH_Exp2","2016_Mar_22_1845",NA
"Recordings/buda.wav","yes","b","d","u","yes","a","buda","Training","bilabial","TrainingItems",1,15,115,50,NA,NA,NA,NA,NA,NA,NA,NA,NA,NA,35,FALSE,18,59.9218814736,NA,"American English","VSH_Exp2","2016_Mar_22_1845",NA
"Recordings/tupa.wav","no","t","p","u","yes","a","tupa","Training","alveolar","TrainingItems",1,16,116,28,NA,NA,NA,NA,NA,NA,NA,NA,NA,NA,35,FALSE,18,59.9218814736,NA,"American English","VSH_Exp2","2016_Mar_22_1845",NA
"Recordings/fusa.wav","no","f","s","u","no","a","fusa","Training","bilabial","TrainingItems",1,17,117,94,NA,NA,NA,NA,NA,NA,NA,NA,NA,NA,35,FALSE,18,59.9218814736,NA,"American English","VSH_Exp2","2016_Mar_22_1845",NA
"Recordings/didi.wav","yes","d","d","i","yes","i","didi","Training","alveolar","TrainingItems",1,18,118,77,NA,NA,NA,NA,NA,NA,NA,NA,NA,NA,35,FALSE,18,59.9218814736,NA,"American English","VSH_Exp2","2016_Mar_22_1845",NA
"Recordings/tapi.wav","no","t","p","a","yes","i","tapi","Training","alveolar","TrainingItems",1,19,119,11,NA,NA,NA,NA,NA,NA,NA,NA,NA,NA,35,FALSE,18,59.9218814736,NA,"American English","VSH_Exp2","2016_Mar_22_1845",NA
"Recordings/badi.wav","yes","b","d","a","yes","i","badi","Training","bilabial","TrainingItems",1,20,120,23,NA,NA,NA,NA,NA,NA,NA,NA,NA,NA,35,FALSE,18,59.9218814736,NA,"American English","VSH_Exp2","2016_Mar_22_1845",NA
"Recordings/pupi.wav","no","p","p","u","yes","i","pupi","Training","bilabial","TrainingItems",1,21,121,12,NA,NA,NA,NA,NA,NA,NA,NA,NA,NA,35,FALSE,18,59.9218814736,NA,"American English","VSH_Exp2","2016_Mar_22_1845",NA
"Recordings/bidu.wav","yes","b","d","i","yes","u","bidu","Training","bilabial","TrainingItems",1,22,122,68,NA,NA,NA,NA,NA,NA,NA,NA,NA,NA,35,FALSE,18,59.9218814736,NA,"American English","VSH_Exp2","2016_Mar_22_1845",NA
"Recordings/diba.wav","yes","d","b","i","yes","a","diba","Training","alveolar","TrainingItems",1,23,123,61,NA,NA,NA,NA,NA,NA,NA,NA,NA,NA,35,FALSE,18,59.9218814736,NA,"American English","VSH_Exp2","2016_Mar_22_1845",NA
"Recordings/dubi.wav","yes","d","b","u","yes","i","dubi","Training","alveolar","TrainingItems",1,24,124,69,NA,NA,NA,NA,NA,NA,NA,NA,NA,NA,35,FALSE,18,59.9218814736,NA,"American English","VSH_Exp2","2016_Mar_22_1845",NA
"Recordings/dadi.wav","yes","d","d","a","yes","i","dadi","Training","alveolar","TrainingItems",1,25,125,49,NA,NA,NA,NA,NA,NA,NA,NA,NA,NA,35,FALSE,18,59.9218814736,NA,"American English","VSH_Exp2","2016_Mar_22_1845",NA
"Recordings/dada.wav","yes","d","d","a","yes","a","dada","Training","alveolar","TrainingItems",1,26,126,26,NA,NA,NA,NA,NA,NA,NA,NA,NA,NA,35,FALSE,18,59.9218814736,NA,"American English","VSH_Exp2","2016_Mar_22_1845",NA
"Recordings/fufu.wav","no","f","f","u","no","u","fufu","Training","bilabial","TrainingItems",1,27,127,36,NA,NA,NA,NA,NA,NA,NA,NA,NA,NA,35,FALSE,18,59.9218814736,NA,"American English","VSH_Exp2","2016_Mar_22_1845",NA
"Recordings/zizi.wav","yes","z","z","i","no","i","zizi","Training","alveolar","TrainingItems",1,28,128,52,NA,NA,NA,NA,NA,NA,NA,NA,NA,NA,35,FALSE,18,59.9218814736,NA,"American English","VSH_Exp2","2016_Mar_22_1845",NA
"Recordings/sasa.wav","no","s","s","a","no","a","sasa","Training","alveolar","TrainingItems",1,29,129,89,NA,NA,NA,NA,NA,NA,NA,NA,NA,NA,35,FALSE,18,59.9218814736,NA,"American English","VSH_Exp2","2016_Mar_22_1845",NA
"Recordings/zaza.wav","yes","z","z","a","no","a","zaza","Training","alveolar","TrainingItems",1,30,130,54,NA,NA,NA,NA,NA,NA,NA,NA,NA,NA,35,FALSE,18,59.9218814736,NA,"American English","VSH_Exp2","2016_Mar_22_1845",NA
"Recordings/dibi.wav","yes","d","b","i","yes","i","dibi","Training","alveolar","TrainingItems",1,31,131,25,NA,NA,NA,NA,NA,NA,NA,NA,NA,NA,35,FALSE,18,59.9218814736,NA,"American English","VSH_Exp2","2016_Mar_22_1845",NA
"Recordings/papu.wav","no","p","p","a","yes","u","papu","Training","bilabial","TrainingItems",1,32,132,58,NA,NA,NA,NA,NA,NA,NA,NA,NA,NA,35,FALSE,18,59.9218814736,NA,"American English","VSH_Exp2","2016_Mar_22_1845",NA
"Recordings/papa.wav","no","p","p","a","yes","a","papa","Training","bilabial","TrainingItems",1,33,133,41,NA,NA,NA,NA,NA,NA,NA,NA,NA,NA,35,FALSE,18,59.9218814736,NA,"American English","VSH_Exp2","2016_Mar_22_1845",NA
"Recordings/budu.wav","yes","b","d","u","yes","u","budu","Training","bilabial","TrainingItems",1,34,134,47,NA,NA,NA,NA,NA,NA,NA,NA,NA,NA,35,FALSE,18,59.9218814736,NA,"American English","VSH_Exp2","2016_Mar_22_1845",NA
"Recordings/fifi.wav","no","f","f","i","no","i","fifi","Training","bilabial","TrainingItems",1,35,135,42,NA,NA,NA,NA,NA,NA,NA,NA,NA,NA,35,FALSE,18,59.9218814736,NA,"American English","VSH_Exp2","2016_Mar_22_1845",NA
"Recordings/pati.wav","no","p","t","a","yes","i","pati","Training","bilabial","TrainingItems",1,36,136,14,NA,NA,NA,NA,NA,NA,NA,NA,NA,NA,35,FALSE,18,59.9218814736,NA,"American English","VSH_Exp2","2016_Mar_22_1845",NA
"Recordings/fifu.wav","no","f","f","i","no","u","fifu","Training","bilabial","TrainingItems",1,37,137,79,NA,NA,NA,NA,NA,NA,NA,NA,NA,NA,35,FALSE,18,59.9218814736,NA,"American English","VSH_Exp2","2016_Mar_22_1845",NA
"Recordings/sifi.wav","no","s","f","i","no","i","sifi","Training","alveolar","TrainingItems",1,38,138,13,NA,NA,NA,NA,NA,NA,NA,NA,NA,NA,35,FALSE,18,59.9218814736,NA,"American English","VSH_Exp2","2016_Mar_22_1845",NA
"Recordings/piti.wav","no","p","t","i","yes","i","piti","Training","bilabial","TrainingItems",1,39,139,16,NA,NA,NA,NA,NA,NA,NA,NA,NA,NA,35,FALSE,18,59.9218814736,NA,"American English","VSH_Exp2","2016_Mar_22_1845",NA
"Recordings/babu.wav","yes","b","b","a","yes","u","babu","Training","bilabial","TrainingItems",1,40,140,57,NA,NA,NA,NA,NA,NA,NA,NA,NA,NA,35,FALSE,18,59.9218814736,NA,"American English","VSH_Exp2","2016_Mar_22_1845",NA
"Recordings/pita.wav","no","p","t","i","yes","a","pita","Training","bilabial","TrainingItems",1,41,141,99,NA,NA,NA,NA,NA,NA,NA,NA,NA,NA,35,FALSE,18,59.9218814736,NA,"American English","VSH_Exp2","2016_Mar_22_1845",NA
"Recordings/vuva.wav","yes","v","v","u","no","a","vuva","Training","bilabial","TrainingItems",1,42,142,59,NA,NA,NA,NA,NA,NA,NA,NA,NA,NA,35,FALSE,18,59.9218814736,NA,"American English","VSH_Exp2","2016_Mar_22_1845",NA
"Recordings/zuzu.wav","yes","z","z","u","no","u","zuzu","Training","alveolar","TrainingItems",1,43,143,81,NA,NA,NA,NA,NA,NA,NA,NA,NA,NA,35,FALSE,18,59.9218814736,NA,"American English","VSH_Exp2","2016_Mar_22_1845",NA
"Recordings/badu.wav","yes","b","d","a","yes","u","badu","Training","bilabial","TrainingItems",1,44,144,15,NA,NA,NA,NA,NA,NA,NA,NA,NA,NA,35,FALSE,18,59.9218814736,NA,"American English","VSH_Exp2","2016_Mar_22_1845",NA
"Recordings/didu.wav","yes","d","d","i","yes","u","didu","Training","alveolar","TrainingItems",1,45,145,65,NA,NA,NA,NA,NA,NA,NA,NA,NA,NA,35,FALSE,18,59.9218814736,NA,"American English","VSH_Exp2","2016_Mar_22_1845",NA
"Recordings/sufa.wav","no","s","f","u","no","a","sufa","Training","alveolar","TrainingItems",1,46,146,37,NA,NA,NA,NA,NA,NA,NA,NA,NA,NA,35,FALSE,18,59.9218814736,NA,"American English","VSH_Exp2","2016_Mar_22_1845",NA
"Recordings/fisa.wav","no","f","s","i","no","a","fisa","Training","bilabial","TrainingItems",1,47,147,32,NA,NA,NA,NA,NA,NA,NA,NA,NA,NA,35,FALSE,18,59.9218814736,NA,"American English","VSH_Exp2","2016_Mar_22_1845",NA
"Recordings/tupu.wav","no","t","p","u","yes","u","tupu","Training","alveolar","TrainingItems",1,48,148,95,NA,NA,NA,NA,NA,NA,NA,NA,NA,NA,35,FALSE,18,59.9218814736,NA,"American English","VSH_Exp2","2016_Mar_22_1845",NA
"Recordings/tapa.wav","no","t","p","a","yes","a","tapa","Training","alveolar","TrainingItems",1,49,149,72,NA,NA,NA,NA,NA,NA,NA,NA,NA,NA,35,FALSE,18,59.9218814736,NA,"American English","VSH_Exp2","2016_Mar_22_1845",NA
"Recordings/tuti.wav","no","t","t","u","yes","i","tuti","Training","alveolar","TrainingItems",1,50,150,84,NA,NA,NA,NA,NA,NA,NA,NA,NA,NA,35,FALSE,18,59.9218814736,NA,"American English","VSH_Exp2","2016_Mar_22_1845",NA
"Recordings/dubu.wav","yes","d","b","u","yes","u","dubu","Training","alveolar","TrainingItems",1,51,151,0,NA,NA,NA,NA,NA,NA,NA,NA,NA,NA,35,FALSE,18,59.9218814736,NA,"American English","VSH_Exp2","2016_Mar_22_1845",NA
"Recordings/vuvu.wav","yes","v","v","u","no","u","vuvu","Training","bilabial","TrainingItems",1,52,152,98,NA,NA,NA,NA,NA,NA,NA,NA,NA,NA,35,FALSE,18,59.9218814736,NA,"American English","VSH_Exp2","2016_Mar_22_1845",NA
"Recordings/tipu.wav","no","t","p","i","yes","u","tipu","Training","alveolar","TrainingItems",1,53,153,18,NA,NA,NA,NA,NA,NA,NA,NA,NA,NA,35,FALSE,18,59.9218814736,NA,"American English","VSH_Exp2","2016_Mar_22_1845",NA
"Recordings/sasu.wav","no","s","s","a","no","u","sasu","Training","alveolar","TrainingItems",1,54,154,97,NA,NA,NA,NA,NA,NA,NA,NA,NA,NA,35,FALSE,18,59.9218814736,NA,"American English","VSH_Exp2","2016_Mar_22_1845",NA
"Recordings/susu.wav","no","s","s","u","no","u","susu","Training","alveolar","TrainingItems",1,55,155,45,NA,NA,NA,NA,NA,NA,NA,NA,NA,NA,35,FALSE,18,59.9218814736,NA,"American English","VSH_Exp2","2016_Mar_22_1845",NA
"Recordings/fasi.wav","no","f","s","a","no","i","fasi","Training","bilabial","TrainingItems",1,56,156,29,NA,NA,NA,NA,NA,NA,NA,NA,NA,NA,35,FALSE,18,59.9218814736,NA,"American English","VSH_Exp2","2016_Mar_22_1845",NA
"Recordings/puti.wav","no","p","t","u","yes","i","puti","Training","bilabial","TrainingItems",1,57,157,20,NA,NA,NA,NA,NA,NA,NA,NA,NA,NA,35,FALSE,18,59.9218814736,NA,"American English","VSH_Exp2","2016_Mar_22_1845",NA
"Recordings/titi.wav","no","t","t","i","yes","i","titi","Training","alveolar","TrainingItems",1,58,158,33,NA,NA,NA,NA,NA,NA,NA,NA,NA,NA,35,FALSE,18,59.9218814736,NA,"American English","VSH_Exp2","2016_Mar_22_1845",NA
"Recordings/tipa.wav","no","t","p","i","yes","a","tipa","Training","alveolar","TrainingItems",1,59,159,63,NA,NA,NA,NA,NA,NA,NA,NA,NA,NA,35,FALSE,18,59.9218814736,NA,"American English","VSH_Exp2","2016_Mar_22_1845",NA
"Recordings/budi.wav","yes","b","d","u","yes","i","budi","Training","bilabial","TrainingItems",1,60,160,51,NA,NA,NA,NA,NA,NA,NA,NA,NA,NA,35,FALSE,18,59.9218814736,NA,"American English","VSH_Exp2","2016_Mar_22_1845",NA
"Recordings/tipi.wav","no","t","p","i","yes","i","tipi","Training","alveolar","TrainingItems",1,61,161,3,NA,NA,NA,NA,NA,NA,NA,NA,NA,NA,35,FALSE,18,59.9218814736,NA,"American English","VSH_Exp2","2016_Mar_22_1845",NA
"Recordings/ziza.wav","yes","z","z","i","no","a","ziza","Training","alveolar","TrainingItems",1,62,162,7,NA,NA,NA,NA,NA,NA,NA,NA,NA,NA,35,FALSE,18,59.9218814736,NA,"American English","VSH_Exp2","2016_Mar_22_1845",NA
"Recordings/vavi.wav","yes","v","v","a","no","i","vavi","Training","bilabial","TrainingItems",1,63,163,91,NA,NA,NA,NA,NA,NA,NA,NA,NA,NA,35,FALSE,18,59.9218814736,NA,"American English","VSH_Exp2","2016_Mar_22_1845",NA
"Recordings/safa.wav","no","s","f","a","no","a","safa","Training","alveolar","TrainingItems",1,64,164,9,NA,NA,NA,NA,NA,NA,NA,NA,NA,NA,35,FALSE,18,59.9218814736,NA,"American English","VSH_Exp2","2016_Mar_22_1845",NA
"Recordings/tuta.wav","no","t","t","u","yes","a","tuta","Training","alveolar","TrainingItems",1,65,165,67,NA,NA,NA,NA,NA,NA,NA,NA,NA,NA,35,FALSE,18,59.9218814736,NA,"American English","VSH_Exp2","2016_Mar_22_1845",NA
"Recordings/daba.wav","yes","d","b","a","yes","a","daba","Training","alveolar","TrainingItems",1,66,166,38,NA,NA,NA,NA,NA,NA,NA,NA,NA,NA,35,FALSE,18,59.9218814736,NA,"American English","VSH_Exp2","2016_Mar_22_1845",NA
"Recordings/bubi.wav","yes","b","b","u","yes","i","bubi","Training","bilabial","TrainingItems",1,67,167,71,NA,NA,NA,NA,NA,NA,NA,NA,NA,NA,35,FALSE,18,59.9218814736,NA,"American English","VSH_Exp2","2016_Mar_22_1845",NA
"Recordings/fisi.wav","no","f","s","i","no","i","fisi","Training","bilabial","TrainingItems",1,68,168,85,NA,NA,NA,NA,NA,NA,NA,NA,NA,NA,35,FALSE,18,59.9218814736,NA,"American English","VSH_Exp2","2016_Mar_22_1845",NA
"Recordings/titu.wav","no","t","t","i","yes","u","titu","Training","alveolar","TrainingItems",1,69,169,83,NA,NA,NA,NA,NA,NA,NA,NA,NA,NA,35,FALSE,18,59.9218814736,NA,"American English","VSH_Exp2","2016_Mar_22_1845",NA
"Recordings/zazi.wav","yes","z","z","a","no","i","zazi","Training","alveolar","TrainingItems",1,70,170,35,NA,NA,NA,NA,NA,NA,NA,NA,NA,NA,35,FALSE,18,59.9218814736,NA,"American English","VSH_Exp2","2016_Mar_22_1845",NA
"Recordings/pupa.wav","no","p","p","u","yes","a","pupa","Training","bilabial","TrainingItems",1,71,171,48,NA,NA,NA,NA,NA,NA,NA,NA,NA,NA,35,FALSE,18,59.9218814736,NA,"American English","VSH_Exp2","2016_Mar_22_1845",NA
"Recordings/tita.wav","no","t","t","i","yes","a","tita","Training","alveolar","TrainingItems",1,72,172,5,NA,NA,NA,NA,NA,NA,NA,NA,NA,NA,35,FALSE,18,59.9218814736,NA,"American English","VSH_Exp2","2016_Mar_22_1845",NA
"Recordings/dadu.wav","yes","d","d","a","yes","u","dadu","Training","alveolar","TrainingItems",1,73,173,75,NA,NA,NA,NA,NA,NA,NA,NA,NA,NA,35,FALSE,18,59.9218814736,NA,"American English","VSH_Exp2","2016_Mar_22_1845",NA
"Recordings/fusu.wav","no","f","s","u","no","u","fusu","Training","bilabial","TrainingItems",1,74,174,56,NA,NA,NA,NA,NA,NA,NA,NA,NA,NA,35,FALSE,18,59.9218814736,NA,"American English","VSH_Exp2","2016_Mar_22_1845",NA
"Recordings/fifa.wav","no","f","f","i","no","a","fifa","Training","bilabial","TrainingItems",1,75,175,22,NA,NA,NA,NA,NA,NA,NA,NA,NA,NA,35,FALSE,18,59.9218814736,NA,"American English","VSH_Exp2","2016_Mar_22_1845",NA
"Recordings/tapu.wav","no","t","p","a","yes","u","tapu","Training","alveolar","TrainingItems",1,76,176,70,NA,NA,NA,NA,NA,NA,NA,NA,NA,NA,35,FALSE,18,59.9218814736,NA,"American English","VSH_Exp2","2016_Mar_22_1845",NA
"Recordings/fasa.wav","no","f","s","a","no","a","fasa","Training","bilabial","TrainingItems",1,77,177,92,NA,NA,NA,NA,NA,NA,NA,NA,NA,NA,35,FALSE,18,59.9218814736,NA,"American English","VSH_Exp2","2016_Mar_22_1845",NA
"Recordings/dudi.wav","yes","d","d","u","yes","i","dudi","Training","alveolar","TrainingItems",1,78,178,78,NA,NA,NA,NA,NA,NA,NA,NA,NA,NA,35,FALSE,18,59.9218814736,NA,"American English","VSH_Exp2","2016_Mar_22_1845",NA
"Recordings/safu.wav","no","s","f","a","no","u","safu","Training","alveolar","TrainingItems",1,79,179,76,NA,NA,NA,NA,NA,NA,NA,NA,NA,NA,35,FALSE,18,59.9218814736,NA,"American English","VSH_Exp2","2016_Mar_22_1845",NA
"Recordings/sufu.wav","no","s","f","u","no","u","sufu","Training","alveolar","TrainingItems",1,80,180,82,NA,NA,NA,NA,NA,NA,NA,NA,NA,NA,35,FALSE,18,59.9218814736,NA,"American English","VSH_Exp2","2016_Mar_22_1845",NA
"Recordings/bibu.wav","yes","b","b","i","yes","u","bibu","Training","bilabial","TrainingItems",1,81,181,39,NA,NA,NA,NA,NA,NA,NA,NA,NA,NA,35,FALSE,18,59.9218814736,NA,"American English","VSH_Exp2","2016_Mar_22_1845",NA
"Recordings/tutu.wav","no","t","t","u","yes","u","tutu","Training","alveolar","TrainingItems",1,82,182,74,NA,NA,NA,NA,NA,NA,NA,NA,NA,NA,35,FALSE,18,59.9218814736,NA,"American English","VSH_Exp2","2016_Mar_22_1845",NA
"Recordings/baba.wav","yes","b","b","a","yes","a","baba","Training","bilabial","TrainingItems",1,83,183,6,NA,NA,NA,NA,NA,NA,NA,NA,NA,NA,35,FALSE,18,59.9218814736,NA,"American English","VSH_Exp2","2016_Mar_22_1845",NA
"Recordings/pupu.wav","no","p","p","u","yes","u","pupu","Training","bilabial","TrainingItems",1,84,184,88,NA,NA,NA,NA,NA,NA,NA,NA,NA,NA,35,FALSE,18,59.9218814736,NA,"American English","VSH_Exp2","2016_Mar_22_1845",NA
"Recordings/tupi.wav","no","t","p","u","yes","i","tupi","Training","alveolar","TrainingItems",1,85,185,66,NA,NA,NA,NA,NA,NA,NA,NA,NA,NA,35,FALSE,18,59.9218814736,NA,"American English","VSH_Exp2","2016_Mar_22_1845",NA
"Recordings/bidi.wav","yes","b","d","i","yes","i","bidi","Training","bilabial","TrainingItems",1,86,186,1,NA,NA,NA,NA,NA,NA,NA,NA,NA,NA,35,FALSE,18,59.9218814736,NA,"American English","VSH_Exp2","2016_Mar_22_1845",NA
"Recordings/fasu.wav","no","f","s","a","no","u","fasu","Training","bilabial","TrainingItems",1,87,187,90,NA,NA,NA,NA,NA,NA,NA,NA,NA,NA,35,FALSE,18,59.9218814736,NA,"American English","VSH_Exp2","2016_Mar_22_1845",NA
"Recordings/bubu.wav","yes","b","b","u","yes","u","bubu","Training","bilabial","TrainingItems",1,88,188,30,NA,NA,NA,NA,NA,NA,NA,NA,NA,NA,35,FALSE,18,59.9218814736,NA,"American English","VSH_Exp2","2016_Mar_22_1845",NA
"Recordings/fisu.wav","no","f","s","i","no","u","fisu","Training","bilabial","TrainingItems",1,89,189,53,NA,NA,NA,NA,NA,NA,NA,NA,NA,NA,35,FALSE,18,59.9218814736,NA,"American English","VSH_Exp2","2016_Mar_22_1845",NA
"Recordings/sisi.wav","no","s","s","i","no","i","sisi","Training","alveolar","TrainingItems",1,90,190,73,NA,NA,NA,NA,NA,NA,NA,NA,NA,NA,35,FALSE,18,59.9218814736,NA,"American English","VSH_Exp2","2016_Mar_22_1845",NA
"Recordings/safi.wav","no","s","f","a","no","i","safi","Training","alveolar","TrainingItems",1,91,191,62,NA,NA,NA,NA,NA,NA,NA,NA,NA,NA,35,FALSE,18,59.9218814736,NA,"American English","VSH_Exp2","2016_Mar_22_1845",NA
"Recordings/pipu.wav","no","p","p","i","yes","u","pipu","Training","bilabial","TrainingItems",1,92,192,60,NA,NA,NA,NA,NA,NA,NA,NA,NA,NA,35,FALSE,18,59.9218814736,NA,"American English","VSH_Exp2","2016_Mar_22_1845",NA
"Recordings/puta.wav","no","p","t","u","yes","a","puta","Training","bilabial","TrainingItems",1,93,193,8,NA,NA,NA,NA,NA,NA,NA,NA,NA,NA,35,FALSE,18,59.9218814736,NA,"American English","VSH_Exp2","2016_Mar_22_1845",NA
"Recordings/tatu.wav","no","t","t","a","yes","u","tatu","Training","alveolar","TrainingItems",1,94,194,87,NA,NA,NA,NA,NA,NA,NA,NA,NA,NA,35,FALSE,18,59.9218814736,NA,"American English","VSH_Exp2","2016_Mar_22_1845",NA
"Recordings/pitu.wav","no","p","t","i","yes","u","pitu","Training","bilabial","TrainingItems",1,95,195,4,NA,NA,NA,NA,NA,NA,NA,NA,NA,NA,35,FALSE,18,59.9218814736,NA,"American English","VSH_Exp2","2016_Mar_22_1845",NA
"Recordings/vava.wav","yes","v","v","a","no","a","vava","Training","bilabial","TrainingItems",1,96,196,27,NA,NA,NA,NA,NA,NA,NA,NA,NA,NA,35,FALSE,18,59.9218814736,NA,"American English","VSH_Exp2","2016_Mar_22_1845",NA
"Recordings/sisa.wav","no","s","s","i","no","a","sisa","Training","alveolar","TrainingItems",1,97,197,80,NA,NA,NA,NA,NA,NA,NA,NA,NA,NA,35,FALSE,18,59.9218814736,NA,"American English","VSH_Exp2","2016_Mar_22_1845",NA
"Recordings/dabi.wav","yes","d","b","a","yes","i","dabi","Training","alveolar","TrainingItems",1,98,198,64,NA,NA,NA,NA,NA,NA,NA,NA,NA,NA,35,FALSE,18,59.9218814736,NA,"American English","VSH_Exp2","2016_Mar_22_1845",NA
"Recordings/patu.wav","no","p","t","a","yes","u","patu","Training","bilabial","TrainingItems",1,99,199,86,NA,NA,NA,NA,NA,NA,NA,NA,NA,NA,35,FALSE,18,59.9218814736,NA,"American English","VSH_Exp2","2016_Mar_22_1845",NA
NA,NA,NA,NA,NA,NA,NA,NA,NA,NA,NA,NA,NA,NA,NA,NA,NA,NA,NA,NA,NA,"space",24.2936210632,NA,NA,35,FALSE,18,59.9218814736,NA,"American English","VSH_Exp2","2016_Mar_22_1845",NA
"Recordings/fusa.wav","no","f","s","u","no","a","fusa","Test","bilabial","OldTestStimuli",NA,NA,NA,NA,0,0,0,2,NA,NA,NA,NA,"Yes",3.99,35,FALSE,18,59.9218814736,NA,"American English","VSH_Exp2","2016_Mar_22_1845",NA
"Recordings/biva.wav","yes","b","v","i","yes","a","biva","Controls","bilabial","VoicingControls",NA,NA,NA,NA,0,1,1,41,NA,NA,NA,NA,"No",1.639,35,FALSE,18,59.9218814736,NA,"American English","VSH_Exp2","2016_Mar_22_1845",NA
"Recordings/siza.wav","no","s","z","i","no","a","siza","Controls","alveolar","StopControls",NA,NA,NA,NA,0,2,2,39,NA,NA,NA,NA,"No",1.153,35,FALSE,18,59.9218814736,NA,"American English","VSH_Exp2","2016_Mar_22_1845",NA
"Recordings/fafi.wav","no","f","f","a","no","i","fafi","Test","bilabial","NewWordTestStimuli",NA,NA,NA,NA,0,3,3,28,NA,NA,NA,NA,"Yes",1.07,35,FALSE,18,59.9218814736,NA,"American English","VSH_Exp2","2016_Mar_22_1845",NA
"Recordings/savu.wav","no","s","v","a","no","u","savu","Controls","alveolar","StopControls",NA,NA,NA,NA,0,4,4,38,NA,NA,NA,NA,"Yes",1.12,35,FALSE,18,59.9218814736,NA,"American English","VSH_Exp2","2016_Mar_22_1845",NA
"Recordings/tafu.wav","no","t","f","a","yes","u","tafu","Controls","alveolar","VoicingControls",NA,NA,NA,NA,0,5,5,45,NA,NA,NA,NA,"No",10.031,35,FALSE,18,59.9218814736,NA,"American English","VSH_Exp2","2016_Mar_22_1845",NA
"Recordings/biba.wav","yes","b","b","i","yes","a","biba","Test","bilabial","NewWordTestStimuli",NA,NA,NA,NA,0,6,6,26,NA,NA,NA,NA,"No",4.69,35,FALSE,18,59.9218814736,NA,"American English","VSH_Exp2","2016_Mar_22_1845",NA
"Recordings/vuza.wav","yes","v","z","u","no","a","vuza","Test","bilabial","NewConsTestStimuli",NA,NA,NA,NA,0,7,7,17,NA,NA,NA,NA,"No",1.671,35,FALSE,18,59.9218814736,NA,"American English","VSH_Exp2","2016_Mar_22_1845",NA
"Recordings/zidu.wav","yes","z","d","i","no","u","zidu","Controls","alveolar","VoicingControls",NA,NA,NA,NA,0,8,8,42,NA,NA,NA,NA,"Yes",1.686,35,FALSE,18,59.9218814736,NA,"American English","VSH_Exp2","2016_Mar_22_1845",NA
"Recordings/suda.wav","no","s","d","u","no","a","suda","Controls","alveolar","NoPatternControls",NA,NA,NA,NA,0,9,9,59,NA,NA,NA,NA,"Yes",2.087,35,FALSE,18,59.9218814736,NA,"American English","VSH_Exp2","2016_Mar_22_1845",NA
"Recordings/sufi.wav","no","s","f","u","no","i","sufi","Test","alveolar","NewWordTestStimuli",NA,NA,NA,NA,0,10,10,23,NA,NA,NA,NA,"Yes",1.704,35,FALSE,18,59.9218814736,NA,"American English","VSH_Exp2","2016_Mar_22_1845",NA
"Recordings/vizi.wav","yes","v","z","i","no","i","vizi","Test","bilabial","NewConsTestStimuli",NA,NA,NA,NA,0,11,11,18,NA,NA,NA,NA,"No",1.954,35,FALSE,18,59.9218814736,NA,"American English","VSH_Exp2","2016_Mar_22_1845",NA
"Recordings/busi.wav","yes","b","s","u","yes","i","busi","Controls","bilabial","NoPatternControls",NA,NA,NA,NA,0,12,12,56,NA,NA,NA,NA,"Yes",1.805,35,FALSE,18,59.9218814736,NA,"American English","VSH_Exp2","2016_Mar_22_1845",NA
"Recordings/vuzu.wav","yes","v","z","u","no","u","vuzu","Test","bilabial","NewConsTestStimuli",NA,NA,NA,NA,0,13,13,10,NA,NA,NA,NA,"Yes",0.953,35,FALSE,18,59.9218814736,NA,"American English","VSH_Exp2","2016_Mar_22_1845",NA
"Recordings/tibi.wav","no","t","b","i","yes","i","tibi","Controls","alveolar","StopControls",NA,NA,NA,NA,0,14,14,35,NA,NA,NA,NA,"Yes",1.353,35,FALSE,18,59.9218814736,NA,"American English","VSH_Exp2","2016_Mar_22_1845",NA
"Recordings/putu.wav","no","p","t","u","yes","u","putu","Test","bilabial","NewWordTestStimuli",NA,NA,NA,NA,0,15,15,27,NA,NA,NA,NA,"Yes",1.304,35,FALSE,18,59.9218814736,NA,"American English","VSH_Exp2","2016_Mar_22_1845",NA
"Recordings/duva.wav","yes","d","v","u","yes","a","duva","Controls","alveolar","VoicingControls",NA,NA,NA,NA,0,16,16,40,NA,NA,NA,NA,"Yes",1.103,35,FALSE,18,59.9218814736,NA,"American English","VSH_Exp2","2016_Mar_22_1845",NA
"Recordings/zisu.wav","yes","z","s","i","no","u","zisu","Controls","alveolar","StopControls",NA,NA,NA,NA,0,17,17,32,NA,NA,NA,NA,"Yes",3.072,35,FALSE,18,59.9218814736,NA,"American English","VSH_Exp2","2016_Mar_22_1845",NA
"Recordings/tibu.wav","no","t","b","i","yes","u","tibu","Controls","alveolar","StopControls",NA,NA,NA,NA,0,18,18,37,NA,NA,NA,NA,"No",1.971,35,FALSE,18,59.9218814736,NA,"American English","VSH_Exp2","2016_Mar_22_1845",NA
"Recordings/zuva.wav","yes","z","v","u","no","a","zuva","Test","alveolar","NewConsTestStimuli",NA,NA,NA,NA,0,19,19,12,NA,NA,NA,NA,"No",2.121,35,FALSE,18,59.9218814736,NA,"American English","VSH_Exp2","2016_Mar_22_1845",NA
"Recordings/vuzi.wav","yes","v","z","u","no","i","vuzi","Test","bilabial","NewConsTestStimuli",NA,NA,NA,NA,0,20,20,14,NA,NA,NA,NA,"No",1.553,35,FALSE,18,59.9218814736,NA,"American English","VSH_Exp2","2016_Mar_22_1845",NA
"Recordings/vafi.wav","yes","v","f","a","no","i","vafi","Controls","bilabial","StopControls",NA,NA,NA,NA,0,21,21,33,NA,NA,NA,NA,"Yes",1.67,35,FALSE,18,59.9218814736,NA,"American English","VSH_Exp2","2016_Mar_22_1845",NA
"Recordings/vuva.wav","yes","v","v","u","no","a","vuva","Test","bilabial","OldTestStimuli",NA,NA,NA,NA,0,22,22,9,NA,NA,NA,NA,"Yes",1.154,35,FALSE,18,59.9218814736,NA,"American English","VSH_Exp2","2016_Mar_22_1845",NA
"Recordings/bapi.wav","yes","b","p","a","yes","i","bapi","Controls","bilabial","StopControls",NA,NA,NA,NA,0,23,23,36,NA,NA,NA,NA,"Yes",1.036,35,FALSE,18,59.9218814736,NA,"American English","VSH_Exp2","2016_Mar_22_1845",NA
"Recordings/sadi.wav","no","s","d","a","no","i","sadi","Controls","alveolar","NoPatternControls",NA,NA,NA,NA,0,24,24,54,NA,NA,NA,NA,"Yes",1.771,35,FALSE,18,59.9218814736,NA,"American English","VSH_Exp2","2016_Mar_22_1845",NA
"Recordings/susi.wav","no","s","s","u","no","i","susi","Test","alveolar","OldTestStimuli",NA,NA,NA,NA,0,25,25,0,NA,NA,NA,NA,"No",3.323,35,FALSE,18,59.9218814736,NA,"American English","VSH_Exp2","2016_Mar_22_1845",NA
"Recordings/bavi.wav","yes","b","v","a","yes","i","bavi","Controls","bilabial","VoicingControls",NA,NA,NA,NA,0,26,26,46,NA,NA,NA,NA,"No",1.721,35,FALSE,18,59.9218814736,NA,"American English","VSH_Exp2","2016_Mar_22_1845",NA
"Recordings/sasu.wav","no","s","s","a","no","u","sasu","Test","alveolar","OldTestStimuli",NA,NA,NA,NA,0,27,27,7,NA,NA,NA,NA,"Yes",1.337,35,FALSE,18,59.9218814736,NA,"American English","VSH_Exp2","2016_Mar_22_1845",NA
"Recordings/siti.wav","no","s","t","i","no","i","siti","Controls","alveolar","VoicingControls",NA,NA,NA,NA,0,28,28,49,NA,NA,NA,NA,"No",1.937,35,FALSE,18,59.9218814736,NA,"American English","VSH_Exp2","2016_Mar_22_1845",NA
"Recordings/dupa.wav","yes","d","p","u","yes","a","dupa","Controls","alveolar","StopControls",NA,NA,NA,NA,0,29,29,30,NA,NA,NA,NA,"Yes",1.203,35,FALSE,18,59.9218814736,NA,"American English","VSH_Exp2","2016_Mar_22_1845",NA
"Recordings/sutu.wav","no","s","t","u","no","u","sutu","Controls","alveolar","VoicingControls",NA,NA,NA,NA,0,30,30,44,NA,NA,NA,NA,"Yes",1.954,35,FALSE,18,59.9218814736,NA,"American English","VSH_Exp2","2016_Mar_22_1845",NA
"Recordings/tifa.wav","no","t","f","i","yes","a","tifa","Controls","alveolar","VoicingControls",NA,NA,NA,NA,0,31,31,47,NA,NA,NA,NA,"No",2.471,35,FALSE,18,59.9218814736,NA,"American English","VSH_Exp2","2016_Mar_22_1845",NA
"Recordings/bibi.wav","yes","b","b","i","yes","i","bibi","Test","bilabial","NewWordTestStimuli",NA,NA,NA,NA,0,32,32,21,NA,NA,NA,NA,"Yes",1.054,35,FALSE,18,59.9218814736,NA,"American English","VSH_Exp2","2016_Mar_22_1845",NA
"Recordings/sata.wav","no","s","t","a","no","a","sata","Controls","alveolar","VoicingControls",NA,NA,NA,NA,0,33,33,48,NA,NA,NA,NA,"Yes",0.954,35,FALSE,18,59.9218814736,NA,"American English","VSH_Exp2","2016_Mar_22_1845",NA
"Recordings/zivu.wav","yes","z","v","i","no","u","zivu","Test","alveolar","NewConsTestStimuli",NA,NA,NA,NA,0,34,34,19,NA,NA,NA,NA,"No",1.187,35,FALSE,18,59.9218814736,NA,"American English","VSH_Exp2","2016_Mar_22_1845",NA
"Recordings/sibu.wav","no","s","b","i","no","u","sibu","Controls","alveolar","NoPatternControls",NA,NA,NA,NA,0,35,35,58,NA,NA,NA,NA,"Yes",1.171,35,FALSE,18,59.9218814736,NA,"American English","VSH_Exp2","2016_Mar_22_1845",NA
"Recordings/disi.wav","yes","d","s","i","yes","i","disi","Controls","alveolar","NoPatternControls",NA,NA,NA,NA,0,36,36,50,NA,NA,NA,NA,"Yes",0.803,35,FALSE,18,59.9218814736,NA,"American English","VSH_Exp2","2016_Mar_22_1845",NA
"Recordings/bubi.wav","yes","b","b","u","yes","i","bubi","Test","bilabial","OldTestStimuli",NA,NA,NA,NA,0,37,37,5,NA,NA,NA,NA,"Yes",1.504,35,FALSE,18,59.9218814736,NA,"American English","VSH_Exp2","2016_Mar_22_1845",NA
"Recordings/pitu.wav","no","p","t","i","yes","u","pitu","Test","bilabial","OldTestStimuli",NA,NA,NA,NA,0,38,38,1,NA,NA,NA,NA,"Yes",2.005,35,FALSE,18,59.9218814736,NA,"American English","VSH_Exp2","2016_Mar_22_1845",NA
"Recordings/ziva.wav","yes","z","v","i","no","a","ziva","Test","alveolar","NewConsTestStimuli",NA,NA,NA,NA,0,39,39,13,NA,NA,NA,NA,"No",2.654,35,FALSE,18,59.9218814736,NA,"American English","VSH_Exp2","2016_Mar_22_1845",NA
"Recordings/duda.wav","yes","d","d","u","yes","a","duda","Test","alveolar","NewWordTestStimuli",NA,NA,NA,NA,0,40,40,20,NA,NA,NA,NA,"Yes",0.787,35,FALSE,18,59.9218814736,NA,"American English","VSH_Exp2","2016_Mar_22_1845",NA
"Recordings/zata.wav","yes","z","t","a","no","a","zata","Controls","alveolar","NoPatternControls",NA,NA,NA,NA,0,41,41,52,NA,NA,NA,NA,"Yes",1.37,35,FALSE,18,59.9218814736,NA,"American English","VSH_Exp2","2016_Mar_22_1845",NA
"Recordings/zuvi.wav","yes","z","v","u","no","i","zuvi","Test","alveolar","NewConsTestStimuli",NA,NA,NA,NA,0,42,42,16,NA,NA,NA,NA,"Yes",1.687,35,FALSE,18,59.9218814736,NA,"American English","VSH_Exp2","2016_Mar_22_1845",NA
"Recordings/tuvi.wav","no","t","v","u","yes","i","tuvi","Controls","alveolar","NoPatternControls",NA,NA,NA,NA,0,43,43,57,NA,NA,NA,NA,"No",1.203,35,FALSE,18,59.9218814736,NA,"American English","VSH_Exp2","2016_Mar_22_1845",NA
"Recordings/zizi.wav","yes","z","z","i","no","i","zizi","Test","alveolar","OldTestStimuli",NA,NA,NA,NA,0,44,44,4,NA,NA,NA,NA,"No",1.52,35,FALSE,18,59.9218814736,NA,"American English","VSH_Exp2","2016_Mar_22_1845",NA
"Recordings/tazi.wav","no","t","z","a","yes","i","tazi","Controls","alveolar","NoPatternControls",NA,NA,NA,NA,0,45,45,55,NA,NA,NA,NA,"No",0.77,35,FALSE,18,59.9218814736,NA,"American English","VSH_Exp2","2016_Mar_22_1845",NA
"Recordings/suzi.wav","no","s","z","u","no","i","suzi","Controls","alveolar","StopControls",NA,NA,NA,NA,0,46,46,34,NA,NA,NA,NA,"No",0.836,35,FALSE,18,59.9218814736,NA,"American English","VSH_Exp2","2016_Mar_22_1845",NA
"Recordings/bipa.wav","yes","b","p","i","yes","a","bipa","Controls","bilabial","StopControls",NA,NA,NA,NA,0,47,47,31,NA,NA,NA,NA,"Yes",0.836,35,FALSE,18,59.9218814736,NA,"American English","VSH_Exp2","2016_Mar_22_1845",NA
"Recordings/zaza.wav","yes","z","z","a","no","a","zaza","Test","alveolar","OldTestStimuli",NA,NA,NA,NA,0,48,48,8,NA,NA,NA,NA,"No",1.237,35,FALSE,18,59.9218814736,NA,"American English","VSH_Exp2","2016_Mar_22_1845",NA
"Recordings/vazu.wav","yes","v","z","a","no","u","vazu","Test","bilabial","NewConsTestStimuli",NA,NA,NA,NA,0,49,49,11,NA,NA,NA,NA,"Yes",1.17,35,FALSE,18,59.9218814736,NA,"American English","VSH_Exp2","2016_Mar_22_1845",NA
"Recordings/dubu.wav","yes","d","b","u","yes","u","dubu","Test","alveolar","OldTestStimuli",NA,NA,NA,NA,0,50,50,6,NA,NA,NA,NA,"Yes",0.971,35,FALSE,18,59.9218814736,NA,"American English","VSH_Exp2","2016_Mar_22_1845",NA
"Recordings/vavu.wav","yes","v","v","a","no","u","vavu","Test","bilabial","NewWordTestStimuli",NA,NA,NA,NA,0,51,51,22,NA,NA,NA,NA,"Yes",1.754,35,FALSE,18,59.9218814736,NA,"American English","VSH_Exp2","2016_Mar_22_1845",NA
"Recordings/zuzu.wav","yes","z","z","u","no","u","zuzu","Test","alveolar","OldTestStimuli",NA,NA,NA,NA,0,52,52,3,NA,NA,NA,NA,"Yes",1.955,35,FALSE,18,59.9218814736,NA,"American English","VSH_Exp2","2016_Mar_22_1845",NA
"Recordings/vita.wav","yes","v","t","i","no","a","vita","Controls","bilabial","NoPatternControls",NA,NA,NA,NA,0,53,53,53,NA,NA,NA,NA,"Yes",1.036,35,FALSE,18,59.9218814736,NA,"American English","VSH_Exp2","2016_Mar_22_1845",NA
"Recordings/busu.wav","yes","b","s","u","yes","u","busu","Controls","bilabial","NoPatternControls",NA,NA,NA,NA,0,54,54,51,NA,NA,NA,NA,"Yes",2.12,35,FALSE,18,59.9218814736,NA,"American English","VSH_Exp2","2016_Mar_22_1845",NA
"Recordings/zava.wav","yes","z","v","a","no","a","zava","Test","alveolar","NewConsTestStimuli",NA,NA,NA,NA,0,55,55,15,NA,NA,NA,NA,"No",1.337,35,FALSE,18,59.9218814736,NA,"American English","VSH_Exp2","2016_Mar_22_1845",NA
"Recordings/susa.wav","no","s","s","u","no","a","susa","Test","alveolar","NewWordTestStimuli",NA,NA,NA,NA,0,56,56,25,NA,NA,NA,NA,"Yes",0.952,35,FALSE,18,59.9218814736,NA,"American English","VSH_Exp2","2016_Mar_22_1845",NA
"Recordings/vabi.wav","yes","v","b","a","no","i","vabi","Controls","bilabial","VoicingControls",NA,NA,NA,NA,0,57,57,43,NA,NA,NA,NA,"No",2.972,35,FALSE,18,59.9218814736,NA,"American English","VSH_Exp2","2016_Mar_22_1845",NA
"Recordings/fufi.wav","no","f","f","u","no","i","fufi","Test","bilabial","NewWordTestStimuli",NA,NA,NA,NA,0,58,58,24,NA,NA,NA,NA,"Yes",1.688,35,FALSE,18,59.9218814736,NA,"American English","VSH_Exp2","2016_Mar_22_1845",NA
"Recordings/vivi.wav","yes","v","v","i","no","i","vivi","Test","bilabial","NewWordTestStimuli",NA,NA,NA,NA,0,59,59,29,NA,NA,NA,NA,"Yes",0.853,35,FALSE,18,59.9218814736,NA,"American English","VSH_Exp2","2016_Mar_22_1845",NA
