"SOUND","VOICING","SEGMENT","SEGMENT3","SEGMENT2","STOP","SEGMENT4","STIMULUS","GENERAL_TYPE","PLACE","TYPE","trials.thisRepN","trials.thisTrialN","trials.thisN","trials.thisIndex","trials_2.thisRepN","trials_2.thisTrialN","trials_2.thisN","trials_2.thisIndex","SpaceBar.keys","SpaceBar.rt","key_resp_2.keys","key_resp_2.rt","rating.response","rating.rt","participant","Gender","Age","frameRate","OtherLanguages","NativeLanguage","expName","date","X34"
NA,NA,NA,NA,NA,NA,NA,NA,NA,NA,NA,NA,NA,NA,NA,NA,NA,NA,NA,"space",1.70373392105,NA,NA,NA,NA,38,FALSE,18,59.9998855593,"Polish","American English","VSH_Exp2","2016_Mar_23_1803",NA
"Recordings/bubi.wav","yes","b","b","u","yes","i","bubi","Training","bilabial","TrainingItems",0,0,0,11,NA,NA,NA,NA,NA,NA,NA,NA,NA,NA,38,FALSE,18,59.9998855593,"Polish","American English","VSH_Exp2","2016_Mar_23_1803",NA
"Recordings/sisa.wav","no","s","s","i","no","a","sisa","Training","alveolar","TrainingItems",0,1,1,43,NA,NA,NA,NA,NA,NA,NA,NA,NA,NA,38,FALSE,18,59.9998855593,"Polish","American English","VSH_Exp2","2016_Mar_23_1803",NA
"Recordings/fifu.wav","no","f","f","i","no","u","fifu","Training","bilabial","TrainingItems",0,2,2,12,NA,NA,NA,NA,NA,NA,NA,NA,NA,NA,38,FALSE,18,59.9998855593,"Polish","American English","VSH_Exp2","2016_Mar_23_1803",NA
"Recordings/sasu.wav","no","s","s","a","no","u","sasu","Training","alveolar","TrainingItems",0,3,3,56,NA,NA,NA,NA,NA,NA,NA,NA,NA,NA,38,FALSE,18,59.9998855593,"Polish","American English","VSH_Exp2","2016_Mar_23_1803",NA
"Recordings/fifi.wav","no","f","f","i","no","i","fifi","Training","bilabial","TrainingItems",0,4,4,38,NA,NA,NA,NA,NA,NA,NA,NA,NA,NA,38,FALSE,18,59.9998855593,"Polish","American English","VSH_Exp2","2016_Mar_23_1803",NA
"Recordings/tuta.wav","no","t","t","u","yes","a","tuta","Training","alveolar","TrainingItems",0,5,5,84,NA,NA,NA,NA,NA,NA,NA,NA,NA,NA,38,FALSE,18,59.9998855593,"Polish","American English","VSH_Exp2","2016_Mar_23_1803",NA
"Recordings/pupu.wav","no","p","p","u","yes","u","pupu","Training","bilabial","TrainingItems",0,6,6,71,NA,NA,NA,NA,NA,NA,NA,NA,NA,NA,38,FALSE,18,59.9998855593,"Polish","American English","VSH_Exp2","2016_Mar_23_1803",NA
"Recordings/zazi.wav","yes","z","z","a","no","i","zazi","Training","alveolar","TrainingItems",0,7,7,17,NA,NA,NA,NA,NA,NA,NA,NA,NA,NA,38,FALSE,18,59.9998855593,"Polish","American English","VSH_Exp2","2016_Mar_23_1803",NA
"Recordings/viva.wav","yes","v","v","i","no","a","viva","Training","bilabial","TrainingItems",0,8,8,78,NA,NA,NA,NA,NA,NA,NA,NA,NA,NA,38,FALSE,18,59.9998855593,"Polish","American English","VSH_Exp2","2016_Mar_23_1803",NA
"Recordings/babi.wav","yes","b","b","a","yes","i","babi","Training","bilabial","TrainingItems",0,9,9,28,NA,NA,NA,NA,NA,NA,NA,NA,NA,NA,38,FALSE,18,59.9998855593,"Polish","American English","VSH_Exp2","2016_Mar_23_1803",NA
"Recordings/bubu.wav","yes","b","b","u","yes","u","bubu","Training","bilabial","TrainingItems",0,10,10,2,NA,NA,NA,NA,NA,NA,NA,NA,NA,NA,38,FALSE,18,59.9998855593,"Polish","American English","VSH_Exp2","2016_Mar_23_1803",NA
"Recordings/susa.wav","no","s","s","u","no","a","susa","Training","alveolar","TrainingItems",0,11,11,58,NA,NA,NA,NA,NA,NA,NA,NA,NA,NA,38,FALSE,18,59.9998855593,"Polish","American English","VSH_Exp2","2016_Mar_23_1803",NA
"Recordings/fusi.wav","no","f","s","u","no","i","fusi","Training","bilabial","TrainingItems",0,12,12,9,NA,NA,NA,NA,NA,NA,NA,NA,NA,NA,38,FALSE,18,59.9998855593,"Polish","American English","VSH_Exp2","2016_Mar_23_1803",NA
"Recordings/dudu.wav","yes","d","d","u","yes","u","dudu","Training","alveolar","TrainingItems",0,13,13,18,NA,NA,NA,NA,NA,NA,NA,NA,NA,NA,38,FALSE,18,59.9998855593,"Polish","American English","VSH_Exp2","2016_Mar_23_1803",NA
"Recordings/dubi.wav","yes","d","b","u","yes","i","dubi","Training","alveolar","TrainingItems",0,14,14,67,NA,NA,NA,NA,NA,NA,NA,NA,NA,NA,38,FALSE,18,59.9998855593,"Polish","American English","VSH_Exp2","2016_Mar_23_1803",NA
"Recordings/fusu.wav","no","f","s","u","no","u","fusu","Training","bilabial","TrainingItems",0,15,15,69,NA,NA,NA,NA,NA,NA,NA,NA,NA,NA,38,FALSE,18,59.9998855593,"Polish","American English","VSH_Exp2","2016_Mar_23_1803",NA
"Recordings/titi.wav","no","t","t","i","yes","i","titi","Training","alveolar","TrainingItems",0,16,16,19,NA,NA,NA,NA,NA,NA,NA,NA,NA,NA,38,FALSE,18,59.9998855593,"Polish","American English","VSH_Exp2","2016_Mar_23_1803",NA
"Recordings/dibi.wav","yes","d","b","i","yes","i","dibi","Training","alveolar","TrainingItems",0,17,17,54,NA,NA,NA,NA,NA,NA,NA,NA,NA,NA,38,FALSE,18,59.9998855593,"Polish","American English","VSH_Exp2","2016_Mar_23_1803",NA
"Recordings/vuvi.wav","yes","v","v","u","no","i","vuvi","Training","bilabial","TrainingItems",0,18,18,14,NA,NA,NA,NA,NA,NA,NA,NA,NA,NA,38,FALSE,18,59.9998855593,"Polish","American English","VSH_Exp2","2016_Mar_23_1803",NA
"Recordings/vizi.wav","yes","v","z","i","no","i","vizi","Training","bilabial","TrainingItems",0,19,19,94,NA,NA,NA,NA,NA,NA,NA,NA,NA,NA,38,FALSE,18,59.9998855593,"Polish","American English","VSH_Exp2","2016_Mar_23_1803",NA
"Recordings/duba.wav","yes","d","b","u","yes","a","duba","Training","alveolar","TrainingItems",0,20,20,82,NA,NA,NA,NA,NA,NA,NA,NA,NA,NA,38,FALSE,18,59.9998855593,"Polish","American English","VSH_Exp2","2016_Mar_23_1803",NA
"Recordings/ziva.wav","yes","z","v","i","no","a","ziva","Training","alveolar","TrainingItems",0,21,21,1,NA,NA,NA,NA,NA,NA,NA,NA,NA,NA,38,FALSE,18,59.9998855593,"Polish","American English","VSH_Exp2","2016_Mar_23_1803",NA
"Recordings/zuzu.wav","yes","z","z","u","no","u","zuzu","Training","alveolar","TrainingItems",0,22,22,97,NA,NA,NA,NA,NA,NA,NA,NA,NA,NA,38,FALSE,18,59.9998855593,"Polish","American English","VSH_Exp2","2016_Mar_23_1803",NA
"Recordings/pipi.wav","no","p","p","i","yes","i","pipi","Training","bilabial","TrainingItems",0,23,23,22,NA,NA,NA,NA,NA,NA,NA,NA,NA,NA,38,FALSE,18,59.9998855593,"Polish","American English","VSH_Exp2","2016_Mar_23_1803",NA
"Recordings/fasa.wav","no","f","s","a","no","a","fasa","Training","bilabial","TrainingItems",0,24,24,4,NA,NA,NA,NA,NA,NA,NA,NA,NA,NA,38,FALSE,18,59.9998855593,"Polish","American English","VSH_Exp2","2016_Mar_23_1803",NA
"Recordings/vuva.wav","yes","v","v","u","no","a","vuva","Training","bilabial","TrainingItems",0,25,25,32,NA,NA,NA,NA,NA,NA,NA,NA,NA,NA,38,FALSE,18,59.9998855593,"Polish","American English","VSH_Exp2","2016_Mar_23_1803",NA
"Recordings/vuvu.wav","yes","v","v","u","no","u","vuvu","Training","bilabial","TrainingItems",0,26,26,7,NA,NA,NA,NA,NA,NA,NA,NA,NA,NA,38,FALSE,18,59.9998855593,"Polish","American English","VSH_Exp2","2016_Mar_23_1803",NA
"Recordings/dabu.wav","yes","d","b","a","yes","u","dabu","Training","alveolar","TrainingItems",0,27,27,35,NA,NA,NA,NA,NA,NA,NA,NA,NA,NA,38,FALSE,18,59.9998855593,"Polish","American English","VSH_Exp2","2016_Mar_23_1803",NA
"Recordings/zuva.wav","yes","z","v","u","no","a","zuva","Training","alveolar","TrainingItems",0,28,28,15,NA,NA,NA,NA,NA,NA,NA,NA,NA,NA,38,FALSE,18,59.9998855593,"Polish","American English","VSH_Exp2","2016_Mar_23_1803",NA
"Recordings/didi.wav","yes","d","d","i","yes","i","didi","Training","alveolar","TrainingItems",0,29,29,42,NA,NA,NA,NA,NA,NA,NA,NA,NA,NA,38,FALSE,18,59.9998855593,"Polish","American English","VSH_Exp2","2016_Mar_23_1803",NA
"Recordings/dada.wav","yes","d","d","a","yes","a","dada","Training","alveolar","TrainingItems",0,30,30,52,NA,NA,NA,NA,NA,NA,NA,NA,NA,NA,38,FALSE,18,59.9998855593,"Polish","American English","VSH_Exp2","2016_Mar_23_1803",NA
"Recordings/tita.wav","no","t","t","i","yes","a","tita","Training","alveolar","TrainingItems",0,31,31,50,NA,NA,NA,NA,NA,NA,NA,NA,NA,NA,38,FALSE,18,59.9998855593,"Polish","American English","VSH_Exp2","2016_Mar_23_1803",NA
"Recordings/fafu.wav","no","f","f","a","no","u","fafu","Training","bilabial","TrainingItems",0,32,32,63,NA,NA,NA,NA,NA,NA,NA,NA,NA,NA,38,FALSE,18,59.9998855593,"Polish","American English","VSH_Exp2","2016_Mar_23_1803",NA
"Recordings/tuti.wav","no","t","t","u","yes","i","tuti","Training","alveolar","TrainingItems",0,33,33,93,NA,NA,NA,NA,NA,NA,NA,NA,NA,NA,38,FALSE,18,59.9998855593,"Polish","American English","VSH_Exp2","2016_Mar_23_1803",NA
"Recordings/tati.wav","no","t","t","a","yes","i","tati","Training","alveolar","TrainingItems",0,34,34,92,NA,NA,NA,NA,NA,NA,NA,NA,NA,NA,38,FALSE,18,59.9998855593,"Polish","American English","VSH_Exp2","2016_Mar_23_1803",NA
"Recordings/susu.wav","no","s","s","u","no","u","susu","Training","alveolar","TrainingItems",0,35,35,88,NA,NA,NA,NA,NA,NA,NA,NA,NA,NA,38,FALSE,18,59.9998855593,"Polish","American English","VSH_Exp2","2016_Mar_23_1803",NA
"Recordings/zuzi.wav","yes","z","z","u","no","i","zuzi","Training","alveolar","TrainingItems",0,36,36,99,NA,NA,NA,NA,NA,NA,NA,NA,NA,NA,38,FALSE,18,59.9998855593,"Polish","American English","VSH_Exp2","2016_Mar_23_1803",NA
"Recordings/budu.wav","yes","b","d","u","yes","u","budu","Training","bilabial","TrainingItems",0,37,37,47,NA,NA,NA,NA,NA,NA,NA,NA,NA,NA,38,FALSE,18,59.9998855593,"Polish","American English","VSH_Exp2","2016_Mar_23_1803",NA
"Recordings/sifa.wav","no","s","f","i","no","a","sifa","Training","alveolar","TrainingItems",0,38,38,20,NA,NA,NA,NA,NA,NA,NA,NA,NA,NA,38,FALSE,18,59.9998855593,"Polish","American English","VSH_Exp2","2016_Mar_23_1803",NA
"Recordings/vavi.wav","yes","v","v","a","no","i","vavi","Training","bilabial","TrainingItems",0,39,39,86,NA,NA,NA,NA,NA,NA,NA,NA,NA,NA,38,FALSE,18,59.9998855593,"Polish","American English","VSH_Exp2","2016_Mar_23_1803",NA
"Recordings/fisi.wav","no","f","s","i","no","i","fisi","Training","bilabial","TrainingItems",0,40,40,76,NA,NA,NA,NA,NA,NA,NA,NA,NA,NA,38,FALSE,18,59.9998855593,"Polish","American English","VSH_Exp2","2016_Mar_23_1803",NA
"Recordings/sifu.wav","no","s","f","i","no","u","sifu","Training","alveolar","TrainingItems",0,41,41,98,NA,NA,NA,NA,NA,NA,NA,NA,NA,NA,38,FALSE,18,59.9998855593,"Polish","American English","VSH_Exp2","2016_Mar_23_1803",NA
"Recordings/badi.wav","yes","b","d","a","yes","i","badi","Training","bilabial","TrainingItems",0,42,42,6,NA,NA,NA,NA,NA,NA,NA,NA,NA,NA,38,FALSE,18,59.9998855593,"Polish","American English","VSH_Exp2","2016_Mar_23_1803",NA
"Recordings/safi.wav","no","s","f","a","no","i","safi","Training","alveolar","TrainingItems",0,43,43,96,NA,NA,NA,NA,NA,NA,NA,NA,NA,NA,38,FALSE,18,59.9998855593,"Polish","American English","VSH_Exp2","2016_Mar_23_1803",NA
"Recordings/pupa.wav","no","p","p","u","yes","a","pupa","Training","bilabial","TrainingItems",0,44,44,68,NA,NA,NA,NA,NA,NA,NA,NA,NA,NA,38,FALSE,18,59.9998855593,"Polish","American English","VSH_Exp2","2016_Mar_23_1803",NA
"Recordings/bada.wav","yes","b","d","a","yes","a","bada","Training","bilabial","TrainingItems",0,45,45,13,NA,NA,NA,NA,NA,NA,NA,NA,NA,NA,38,FALSE,18,59.9998855593,"Polish","American English","VSH_Exp2","2016_Mar_23_1803",NA
"Recordings/vivi.wav","yes","v","v","i","no","i","vivi","Training","bilabial","TrainingItems",0,46,46,81,NA,NA,NA,NA,NA,NA,NA,NA,NA,NA,38,FALSE,18,59.9998855593,"Polish","American English","VSH_Exp2","2016_Mar_23_1803",NA
"Recordings/babu.wav","yes","b","b","a","yes","u","babu","Training","bilabial","TrainingItems",0,47,47,10,NA,NA,NA,NA,NA,NA,NA,NA,NA,NA,38,FALSE,18,59.9998855593,"Polish","American English","VSH_Exp2","2016_Mar_23_1803",NA
"Recordings/pipu.wav","no","p","p","i","yes","u","pipu","Training","bilabial","TrainingItems",0,48,48,16,NA,NA,NA,NA,NA,NA,NA,NA,NA,NA,38,FALSE,18,59.9998855593,"Polish","American English","VSH_Exp2","2016_Mar_23_1803",NA
"Recordings/pupi.wav","no","p","p","u","yes","i","pupi","Training","bilabial","TrainingItems",0,49,49,62,NA,NA,NA,NA,NA,NA,NA,NA,NA,NA,38,FALSE,18,59.9998855593,"Polish","American English","VSH_Exp2","2016_Mar_23_1803",NA
"Recordings/sasi.wav","no","s","s","a","no","i","sasi","Training","alveolar","TrainingItems",0,50,50,5,NA,NA,NA,NA,NA,NA,NA,NA,NA,NA,38,FALSE,18,59.9998855593,"Polish","American English","VSH_Exp2","2016_Mar_23_1803",NA
"Recordings/susi.wav","no","s","s","u","no","i","susi","Training","alveolar","TrainingItems",0,51,51,83,NA,NA,NA,NA,NA,NA,NA,NA,NA,NA,38,FALSE,18,59.9998855593,"Polish","American English","VSH_Exp2","2016_Mar_23_1803",NA
"Recordings/bidi.wav","yes","b","d","i","yes","i","bidi","Training","bilabial","TrainingItems",0,52,52,60,NA,NA,NA,NA,NA,NA,NA,NA,NA,NA,38,FALSE,18,59.9998855593,"Polish","American English","VSH_Exp2","2016_Mar_23_1803",NA
"Recordings/fifa.wav","no","f","f","i","no","a","fifa","Training","bilabial","TrainingItems",0,53,53,75,NA,NA,NA,NA,NA,NA,NA,NA,NA,NA,38,FALSE,18,59.9998855593,"Polish","American English","VSH_Exp2","2016_Mar_23_1803",NA
"Recordings/pipa.wav","no","p","p","i","yes","a","pipa","Training","bilabial","TrainingItems",0,54,54,70,NA,NA,NA,NA,NA,NA,NA,NA,NA,NA,38,FALSE,18,59.9998855593,"Polish","American English","VSH_Exp2","2016_Mar_23_1803",NA
"Recordings/badu.wav","yes","b","d","a","yes","u","badu","Training","bilabial","TrainingItems",0,55,55,44,NA,NA,NA,NA,NA,NA,NA,NA,NA,NA,38,FALSE,18,59.9998855593,"Polish","American English","VSH_Exp2","2016_Mar_23_1803",NA
"Recordings/safu.wav","no","s","f","a","no","u","safu","Training","alveolar","TrainingItems",0,56,56,0,NA,NA,NA,NA,NA,NA,NA,NA,NA,NA,38,FALSE,18,59.9998855593,"Polish","American English","VSH_Exp2","2016_Mar_23_1803",NA
"Recordings/zizi.wav","yes","z","z","i","no","i","zizi","Training","alveolar","TrainingItems",0,57,57,66,NA,NA,NA,NA,NA,NA,NA,NA,NA,NA,38,FALSE,18,59.9998855593,"Polish","American English","VSH_Exp2","2016_Mar_23_1803",NA
"Recordings/vuzi.wav","yes","v","z","u","no","i","vuzi","Training","bilabial","TrainingItems",0,58,58,46,NA,NA,NA,NA,NA,NA,NA,NA,NA,NA,38,FALSE,18,59.9998855593,"Polish","American English","VSH_Exp2","2016_Mar_23_1803",NA
"Recordings/fafa.wav","no","f","f","a","no","a","fafa","Training","bilabial","TrainingItems",0,59,59,87,NA,NA,NA,NA,NA,NA,NA,NA,NA,NA,38,FALSE,18,59.9998855593,"Polish","American English","VSH_Exp2","2016_Mar_23_1803",NA
"Recordings/ziza.wav","yes","z","z","i","no","a","ziza","Training","alveolar","TrainingItems",0,60,60,95,NA,NA,NA,NA,NA,NA,NA,NA,NA,NA,38,FALSE,18,59.9998855593,"Polish","American English","VSH_Exp2","2016_Mar_23_1803",NA
"Recordings/fufi.wav","no","f","f","u","no","i","fufi","Training","bilabial","TrainingItems",0,61,61,79,NA,NA,NA,NA,NA,NA,NA,NA,NA,NA,38,FALSE,18,59.9998855593,"Polish","American English","VSH_Exp2","2016_Mar_23_1803",NA
"Recordings/papu.wav","no","p","p","a","yes","u","papu","Training","bilabial","TrainingItems",0,62,62,40,NA,NA,NA,NA,NA,NA,NA,NA,NA,NA,38,FALSE,18,59.9998855593,"Polish","American English","VSH_Exp2","2016_Mar_23_1803",NA
"Recordings/dudi.wav","yes","d","d","u","yes","i","dudi","Training","alveolar","TrainingItems",0,63,63,57,NA,NA,NA,NA,NA,NA,NA,NA,NA,NA,38,FALSE,18,59.9998855593,"Polish","American English","VSH_Exp2","2016_Mar_23_1803",NA
"Recordings/didu.wav","yes","d","d","i","yes","u","didu","Training","alveolar","TrainingItems",0,64,64,53,NA,NA,NA,NA,NA,NA,NA,NA,NA,NA,38,FALSE,18,59.9998855593,"Polish","American English","VSH_Exp2","2016_Mar_23_1803",NA
"Recordings/sifi.wav","no","s","f","i","no","i","sifi","Training","alveolar","TrainingItems",0,65,65,45,NA,NA,NA,NA,NA,NA,NA,NA,NA,NA,38,FALSE,18,59.9998855593,"Polish","American English","VSH_Exp2","2016_Mar_23_1803",NA
"Recordings/dabi.wav","yes","d","b","a","yes","i","dabi","Training","alveolar","TrainingItems",0,66,66,64,NA,NA,NA,NA,NA,NA,NA,NA,NA,NA,38,FALSE,18,59.9998855593,"Polish","American English","VSH_Exp2","2016_Mar_23_1803",NA
"Recordings/zuza.wav","yes","z","z","u","no","a","zuza","Training","alveolar","TrainingItems",0,67,67,34,NA,NA,NA,NA,NA,NA,NA,NA,NA,NA,38,FALSE,18,59.9998855593,"Polish","American English","VSH_Exp2","2016_Mar_23_1803",NA
"Recordings/vaza.wav","yes","v","z","a","no","a","vaza","Training","bilabial","TrainingItems",0,68,68,3,NA,NA,NA,NA,NA,NA,NA,NA,NA,NA,38,FALSE,18,59.9998855593,"Polish","American English","VSH_Exp2","2016_Mar_23_1803",NA
"Recordings/sufi.wav","no","s","f","u","no","i","sufi","Training","alveolar","TrainingItems",0,69,69,26,NA,NA,NA,NA,NA,NA,NA,NA,NA,NA,38,FALSE,18,59.9998855593,"Polish","American English","VSH_Exp2","2016_Mar_23_1803",NA
"Recordings/dadi.wav","yes","d","d","a","yes","i","dadi","Training","alveolar","TrainingItems",0,70,70,39,NA,NA,NA,NA,NA,NA,NA,NA,NA,NA,38,FALSE,18,59.9998855593,"Polish","American English","VSH_Exp2","2016_Mar_23_1803",NA
"Recordings/sasa.wav","no","s","s","a","no","a","sasa","Training","alveolar","TrainingItems",0,71,71,30,NA,NA,NA,NA,NA,NA,NA,NA,NA,NA,38,FALSE,18,59.9998855593,"Polish","American English","VSH_Exp2","2016_Mar_23_1803",NA
"Recordings/buda.wav","yes","b","d","u","yes","a","buda","Training","bilabial","TrainingItems",0,72,72,73,NA,NA,NA,NA,NA,NA,NA,NA,NA,NA,38,FALSE,18,59.9998855593,"Polish","American English","VSH_Exp2","2016_Mar_23_1803",NA
"Recordings/daba.wav","yes","d","b","a","yes","a","daba","Training","alveolar","TrainingItems",0,73,73,74,NA,NA,NA,NA,NA,NA,NA,NA,NA,NA,38,FALSE,18,59.9998855593,"Polish","American English","VSH_Exp2","2016_Mar_23_1803",NA
"Recordings/viza.wav","yes","v","z","i","no","a","viza","Training","bilabial","TrainingItems",0,74,74,51,NA,NA,NA,NA,NA,NA,NA,NA,NA,NA,38,FALSE,18,59.9998855593,"Polish","American English","VSH_Exp2","2016_Mar_23_1803",NA
"Recordings/dubu.wav","yes","d","b","u","yes","u","dubu","Training","alveolar","TrainingItems",0,75,75,89,NA,NA,NA,NA,NA,NA,NA,NA,NA,NA,38,FALSE,18,59.9998855593,"Polish","American English","VSH_Exp2","2016_Mar_23_1803",NA
"Recordings/biba.wav","yes","b","b","i","yes","a","biba","Training","bilabial","TrainingItems",0,76,76,59,NA,NA,NA,NA,NA,NA,NA,NA,NA,NA,38,FALSE,18,59.9998855593,"Polish","American English","VSH_Exp2","2016_Mar_23_1803",NA
"Recordings/zuvu.wav","yes","z","v","u","no","u","zuvu","Training","alveolar","TrainingItems",0,77,77,8,NA,NA,NA,NA,NA,NA,NA,NA,NA,NA,38,FALSE,18,59.9998855593,"Polish","American English","VSH_Exp2","2016_Mar_23_1803",NA
"Recordings/sisi.wav","no","s","s","i","no","i","sisi","Training","alveolar","TrainingItems",0,78,78,55,NA,NA,NA,NA,NA,NA,NA,NA,NA,NA,38,FALSE,18,59.9998855593,"Polish","American English","VSH_Exp2","2016_Mar_23_1803",NA
"Recordings/vuza.wav","yes","v","z","u","no","a","vuza","Training","bilabial","TrainingItems",0,79,79,41,NA,NA,NA,NA,NA,NA,NA,NA,NA,NA,38,FALSE,18,59.9998855593,"Polish","American English","VSH_Exp2","2016_Mar_23_1803",NA
"Recordings/bibi.wav","yes","b","b","i","yes","i","bibi","Training","bilabial","TrainingItems",0,80,80,33,NA,NA,NA,NA,NA,NA,NA,NA,NA,NA,38,FALSE,18,59.9998855593,"Polish","American English","VSH_Exp2","2016_Mar_23_1803",NA
"Recordings/sufu.wav","no","s","f","u","no","u","sufu","Training","alveolar","TrainingItems",0,81,81,49,NA,NA,NA,NA,NA,NA,NA,NA,NA,NA,38,FALSE,18,59.9998855593,"Polish","American English","VSH_Exp2","2016_Mar_23_1803",NA
"Recordings/dida.wav","yes","d","d","i","yes","a","dida","Training","alveolar","TrainingItems",0,82,82,27,NA,NA,NA,NA,NA,NA,NA,NA,NA,NA,38,FALSE,18,59.9998855593,"Polish","American English","VSH_Exp2","2016_Mar_23_1803",NA
"Recordings/zivu.wav","yes","z","v","i","no","u","zivu","Training","alveolar","TrainingItems",0,83,83,24,NA,NA,NA,NA,NA,NA,NA,NA,NA,NA,38,FALSE,18,59.9998855593,"Polish","American English","VSH_Exp2","2016_Mar_23_1803",NA
"Recordings/fusa.wav","no","f","s","u","no","a","fusa","Training","bilabial","TrainingItems",0,84,84,77,NA,NA,NA,NA,NA,NA,NA,NA,NA,NA,38,FALSE,18,59.9998855593,"Polish","American English","VSH_Exp2","2016_Mar_23_1803",NA
"Recordings/baba.wav","yes","b","b","a","yes","a","baba","Training","bilabial","TrainingItems",0,85,85,37,NA,NA,NA,NA,NA,NA,NA,NA,NA,NA,38,FALSE,18,59.9998855593,"Polish","American English","VSH_Exp2","2016_Mar_23_1803",NA
"Recordings/zuvi.wav","yes","z","v","u","no","i","zuvi","Training","alveolar","TrainingItems",0,86,86,23,NA,NA,NA,NA,NA,NA,NA,NA,NA,NA,38,FALSE,18,59.9998855593,"Polish","American English","VSH_Exp2","2016_Mar_23_1803",NA
"Recordings/vivu.wav","yes","v","v","i","no","u","vivu","Training","bilabial","TrainingItems",0,87,87,91,NA,NA,NA,NA,NA,NA,NA,NA,NA,NA,38,FALSE,18,59.9998855593,"Polish","American English","VSH_Exp2","2016_Mar_23_1803",NA
"Recordings/bida.wav","yes","b","d","i","yes","a","bida","Training","bilabial","TrainingItems",0,88,88,65,NA,NA,NA,NA,NA,NA,NA,NA,NA,NA,38,FALSE,18,59.9998855593,"Polish","American English","VSH_Exp2","2016_Mar_23_1803",NA
"Recordings/zavu.wav","yes","z","v","a","no","u","zavu","Training","alveolar","TrainingItems",0,89,89,29,NA,NA,NA,NA,NA,NA,NA,NA,NA,NA,38,FALSE,18,59.9998855593,"Polish","American English","VSH_Exp2","2016_Mar_23_1803",NA
"Recordings/tatu.wav","no","t","t","a","yes","u","tatu","Training","alveolar","TrainingItems",0,90,90,90,NA,NA,NA,NA,NA,NA,NA,NA,NA,NA,38,FALSE,18,59.9998855593,"Polish","American English","VSH_Exp2","2016_Mar_23_1803",NA
"Recordings/duda.wav","yes","d","d","u","yes","a","duda","Training","alveolar","TrainingItems",0,91,91,36,NA,NA,NA,NA,NA,NA,NA,NA,NA,NA,38,FALSE,18,59.9998855593,"Polish","American English","VSH_Exp2","2016_Mar_23_1803",NA
"Recordings/dadu.wav","yes","d","d","a","yes","u","dadu","Training","alveolar","TrainingItems",0,92,92,25,NA,NA,NA,NA,NA,NA,NA,NA,NA,NA,38,FALSE,18,59.9998855593,"Polish","American English","VSH_Exp2","2016_Mar_23_1803",NA
"Recordings/safa.wav","no","s","f","a","no","a","safa","Training","alveolar","TrainingItems",0,93,93,31,NA,NA,NA,NA,NA,NA,NA,NA,NA,NA,38,FALSE,18,59.9998855593,"Polish","American English","VSH_Exp2","2016_Mar_23_1803",NA
"Recordings/fufa.wav","no","f","f","u","no","a","fufa","Training","bilabial","TrainingItems",0,94,94,80,NA,NA,NA,NA,NA,NA,NA,NA,NA,NA,38,FALSE,18,59.9998855593,"Polish","American English","VSH_Exp2","2016_Mar_23_1803",NA
"Recordings/tata.wav","no","t","t","a","yes","a","tata","Training","alveolar","TrainingItems",0,95,95,48,NA,NA,NA,NA,NA,NA,NA,NA,NA,NA,38,FALSE,18,59.9998855593,"Polish","American English","VSH_Exp2","2016_Mar_23_1803",NA
"Recordings/vizu.wav","yes","v","z","i","no","u","vizu","Training","bilabial","TrainingItems",0,96,96,72,NA,NA,NA,NA,NA,NA,NA,NA,NA,NA,38,FALSE,18,59.9998855593,"Polish","American English","VSH_Exp2","2016_Mar_23_1803",NA
"Recordings/fisu.wav","no","f","s","i","no","u","fisu","Training","bilabial","TrainingItems",0,97,97,85,NA,NA,NA,NA,NA,NA,NA,NA,NA,NA,38,FALSE,18,59.9998855593,"Polish","American English","VSH_Exp2","2016_Mar_23_1803",NA
"Recordings/bibu.wav","yes","b","b","i","yes","u","bibu","Training","bilabial","TrainingItems",0,98,98,21,NA,NA,NA,NA,NA,NA,NA,NA,NA,NA,38,FALSE,18,59.9998855593,"Polish","American English","VSH_Exp2","2016_Mar_23_1803",NA
"Recordings/fufu.wav","no","f","f","u","no","u","fufu","Training","bilabial","TrainingItems",0,99,99,61,NA,NA,NA,NA,NA,NA,NA,NA,NA,NA,38,FALSE,18,59.9998855593,"Polish","American English","VSH_Exp2","2016_Mar_23_1803",NA
"Recordings/tatu.wav","no","t","t","a","yes","u","tatu","Training","alveolar","TrainingItems",1,0,100,90,NA,NA,NA,NA,NA,NA,NA,NA,NA,NA,38,FALSE,18,59.9998855593,"Polish","American English","VSH_Exp2","2016_Mar_23_1803",NA
"Recordings/dibi.wav","yes","d","b","i","yes","i","dibi","Training","alveolar","TrainingItems",1,1,101,54,NA,NA,NA,NA,NA,NA,NA,NA,NA,NA,38,FALSE,18,59.9998855593,"Polish","American English","VSH_Exp2","2016_Mar_23_1803",NA
"Recordings/tata.wav","no","t","t","a","yes","a","tata","Training","alveolar","TrainingItems",1,2,102,48,NA,NA,NA,NA,NA,NA,NA,NA,NA,NA,38,FALSE,18,59.9998855593,"Polish","American English","VSH_Exp2","2016_Mar_23_1803",NA
"Recordings/pipi.wav","no","p","p","i","yes","i","pipi","Training","bilabial","TrainingItems",1,3,103,22,NA,NA,NA,NA,NA,NA,NA,NA,NA,NA,38,FALSE,18,59.9998855593,"Polish","American English","VSH_Exp2","2016_Mar_23_1803",NA
"Recordings/bida.wav","yes","b","d","i","yes","a","bida","Training","bilabial","TrainingItems",1,4,104,65,NA,NA,NA,NA,NA,NA,NA,NA,NA,NA,38,FALSE,18,59.9998855593,"Polish","American English","VSH_Exp2","2016_Mar_23_1803",NA
"Recordings/sasi.wav","no","s","s","a","no","i","sasi","Training","alveolar","TrainingItems",1,5,105,5,NA,NA,NA,NA,NA,NA,NA,NA,NA,NA,38,FALSE,18,59.9998855593,"Polish","American English","VSH_Exp2","2016_Mar_23_1803",NA
"Recordings/fifu.wav","no","f","f","i","no","u","fifu","Training","bilabial","TrainingItems",1,6,106,12,NA,NA,NA,NA,NA,NA,NA,NA,NA,NA,38,FALSE,18,59.9998855593,"Polish","American English","VSH_Exp2","2016_Mar_23_1803",NA
"Recordings/fasa.wav","no","f","s","a","no","a","fasa","Training","bilabial","TrainingItems",1,7,107,4,NA,NA,NA,NA,NA,NA,NA,NA,NA,NA,38,FALSE,18,59.9998855593,"Polish","American English","VSH_Exp2","2016_Mar_23_1803",NA
"Recordings/pipu.wav","no","p","p","i","yes","u","pipu","Training","bilabial","TrainingItems",1,8,108,16,NA,NA,NA,NA,NA,NA,NA,NA,NA,NA,38,FALSE,18,59.9998855593,"Polish","American English","VSH_Exp2","2016_Mar_23_1803",NA
"Recordings/tuta.wav","no","t","t","u","yes","a","tuta","Training","alveolar","TrainingItems",1,9,109,84,NA,NA,NA,NA,NA,NA,NA,NA,NA,NA,38,FALSE,18,59.9998855593,"Polish","American English","VSH_Exp2","2016_Mar_23_1803",NA
"Recordings/dabu.wav","yes","d","b","a","yes","u","dabu","Training","alveolar","TrainingItems",1,10,110,35,NA,NA,NA,NA,NA,NA,NA,NA,NA,NA,38,FALSE,18,59.9998855593,"Polish","American English","VSH_Exp2","2016_Mar_23_1803",NA
"Recordings/didu.wav","yes","d","d","i","yes","u","didu","Training","alveolar","TrainingItems",1,11,111,53,NA,NA,NA,NA,NA,NA,NA,NA,NA,NA,38,FALSE,18,59.9998855593,"Polish","American English","VSH_Exp2","2016_Mar_23_1803",NA
"Recordings/zuza.wav","yes","z","z","u","no","a","zuza","Training","alveolar","TrainingItems",1,12,112,34,NA,NA,NA,NA,NA,NA,NA,NA,NA,NA,38,FALSE,18,59.9998855593,"Polish","American English","VSH_Exp2","2016_Mar_23_1803",NA
"Recordings/babi.wav","yes","b","b","a","yes","i","babi","Training","bilabial","TrainingItems",1,13,113,28,NA,NA,NA,NA,NA,NA,NA,NA,NA,NA,38,FALSE,18,59.9998855593,"Polish","American English","VSH_Exp2","2016_Mar_23_1803",NA
"Recordings/fusu.wav","no","f","s","u","no","u","fusu","Training","bilabial","TrainingItems",1,14,114,69,NA,NA,NA,NA,NA,NA,NA,NA,NA,NA,38,FALSE,18,59.9998855593,"Polish","American English","VSH_Exp2","2016_Mar_23_1803",NA
"Recordings/vuzi.wav","yes","v","z","u","no","i","vuzi","Training","bilabial","TrainingItems",1,15,115,46,NA,NA,NA,NA,NA,NA,NA,NA,NA,NA,38,FALSE,18,59.9998855593,"Polish","American English","VSH_Exp2","2016_Mar_23_1803",NA
"Recordings/badu.wav","yes","b","d","a","yes","u","badu","Training","bilabial","TrainingItems",1,16,116,44,NA,NA,NA,NA,NA,NA,NA,NA,NA,NA,38,FALSE,18,59.9998855593,"Polish","American English","VSH_Exp2","2016_Mar_23_1803",NA
"Recordings/bubu.wav","yes","b","b","u","yes","u","bubu","Training","bilabial","TrainingItems",1,17,117,2,NA,NA,NA,NA,NA,NA,NA,NA,NA,NA,38,FALSE,18,59.9998855593,"Polish","American English","VSH_Exp2","2016_Mar_23_1803",NA
"Recordings/zuzi.wav","yes","z","z","u","no","i","zuzi","Training","alveolar","TrainingItems",1,18,118,99,NA,NA,NA,NA,NA,NA,NA,NA,NA,NA,38,FALSE,18,59.9998855593,"Polish","American English","VSH_Exp2","2016_Mar_23_1803",NA
"Recordings/buda.wav","yes","b","d","u","yes","a","buda","Training","bilabial","TrainingItems",1,19,119,73,NA,NA,NA,NA,NA,NA,NA,NA,NA,NA,38,FALSE,18,59.9998855593,"Polish","American English","VSH_Exp2","2016_Mar_23_1803",NA
"Recordings/susa.wav","no","s","s","u","no","a","susa","Training","alveolar","TrainingItems",1,20,120,58,NA,NA,NA,NA,NA,NA,NA,NA,NA,NA,38,FALSE,18,59.9998855593,"Polish","American English","VSH_Exp2","2016_Mar_23_1803",NA
"Recordings/fafu.wav","no","f","f","a","no","u","fafu","Training","bilabial","TrainingItems",1,21,121,63,NA,NA,NA,NA,NA,NA,NA,NA,NA,NA,38,FALSE,18,59.9998855593,"Polish","American English","VSH_Exp2","2016_Mar_23_1803",NA
"Recordings/vivi.wav","yes","v","v","i","no","i","vivi","Training","bilabial","TrainingItems",1,22,122,81,NA,NA,NA,NA,NA,NA,NA,NA,NA,NA,38,FALSE,18,59.9998855593,"Polish","American English","VSH_Exp2","2016_Mar_23_1803",NA
"Recordings/fifa.wav","no","f","f","i","no","a","fifa","Training","bilabial","TrainingItems",1,23,123,75,NA,NA,NA,NA,NA,NA,NA,NA,NA,NA,38,FALSE,18,59.9998855593,"Polish","American English","VSH_Exp2","2016_Mar_23_1803",NA
"Recordings/sisi.wav","no","s","s","i","no","i","sisi","Training","alveolar","TrainingItems",1,24,124,55,NA,NA,NA,NA,NA,NA,NA,NA,NA,NA,38,FALSE,18,59.9998855593,"Polish","American English","VSH_Exp2","2016_Mar_23_1803",NA
"Recordings/duda.wav","yes","d","d","u","yes","a","duda","Training","alveolar","TrainingItems",1,25,125,36,NA,NA,NA,NA,NA,NA,NA,NA,NA,NA,38,FALSE,18,59.9998855593,"Polish","American English","VSH_Exp2","2016_Mar_23_1803",NA
"Recordings/dabi.wav","yes","d","b","a","yes","i","dabi","Training","alveolar","TrainingItems",1,26,126,64,NA,NA,NA,NA,NA,NA,NA,NA,NA,NA,38,FALSE,18,59.9998855593,"Polish","American English","VSH_Exp2","2016_Mar_23_1803",NA
"Recordings/dadu.wav","yes","d","d","a","yes","u","dadu","Training","alveolar","TrainingItems",1,27,127,25,NA,NA,NA,NA,NA,NA,NA,NA,NA,NA,38,FALSE,18,59.9998855593,"Polish","American English","VSH_Exp2","2016_Mar_23_1803",NA
"Recordings/fisi.wav","no","f","s","i","no","i","fisi","Training","bilabial","TrainingItems",1,28,128,76,NA,NA,NA,NA,NA,NA,NA,NA,NA,NA,38,FALSE,18,59.9998855593,"Polish","American English","VSH_Exp2","2016_Mar_23_1803",NA
"Recordings/dada.wav","yes","d","d","a","yes","a","dada","Training","alveolar","TrainingItems",1,29,129,52,NA,NA,NA,NA,NA,NA,NA,NA,NA,NA,38,FALSE,18,59.9998855593,"Polish","American English","VSH_Exp2","2016_Mar_23_1803",NA
"Recordings/budu.wav","yes","b","d","u","yes","u","budu","Training","bilabial","TrainingItems",1,30,130,47,NA,NA,NA,NA,NA,NA,NA,NA,NA,NA,38,FALSE,18,59.9998855593,"Polish","American English","VSH_Exp2","2016_Mar_23_1803",NA
"Recordings/zuvi.wav","yes","z","v","u","no","i","zuvi","Training","alveolar","TrainingItems",1,31,131,23,NA,NA,NA,NA,NA,NA,NA,NA,NA,NA,38,FALSE,18,59.9998855593,"Polish","American English","VSH_Exp2","2016_Mar_23_1803",NA
"Recordings/dudu.wav","yes","d","d","u","yes","u","dudu","Training","alveolar","TrainingItems",1,32,132,18,NA,NA,NA,NA,NA,NA,NA,NA,NA,NA,38,FALSE,18,59.9998855593,"Polish","American English","VSH_Exp2","2016_Mar_23_1803",NA
"Recordings/sasa.wav","no","s","s","a","no","a","sasa","Training","alveolar","TrainingItems",1,33,133,30,NA,NA,NA,NA,NA,NA,NA,NA,NA,NA,38,FALSE,18,59.9998855593,"Polish","American English","VSH_Exp2","2016_Mar_23_1803",NA
"Recordings/sufi.wav","no","s","f","u","no","i","sufi","Training","alveolar","TrainingItems",1,34,134,26,NA,NA,NA,NA,NA,NA,NA,NA,NA,NA,38,FALSE,18,59.9998855593,"Polish","American English","VSH_Exp2","2016_Mar_23_1803",NA
"Recordings/bubi.wav","yes","b","b","u","yes","i","bubi","Training","bilabial","TrainingItems",1,35,135,11,NA,NA,NA,NA,NA,NA,NA,NA,NA,NA,38,FALSE,18,59.9998855593,"Polish","American English","VSH_Exp2","2016_Mar_23_1803",NA
"Recordings/sifu.wav","no","s","f","i","no","u","sifu","Training","alveolar","TrainingItems",1,36,136,98,NA,NA,NA,NA,NA,NA,NA,NA,NA,NA,38,FALSE,18,59.9998855593,"Polish","American English","VSH_Exp2","2016_Mar_23_1803",NA
"Recordings/pupu.wav","no","p","p","u","yes","u","pupu","Training","bilabial","TrainingItems",1,37,137,71,NA,NA,NA,NA,NA,NA,NA,NA,NA,NA,38,FALSE,18,59.9998855593,"Polish","American English","VSH_Exp2","2016_Mar_23_1803",NA
"Recordings/viza.wav","yes","v","z","i","no","a","viza","Training","bilabial","TrainingItems",1,38,138,51,NA,NA,NA,NA,NA,NA,NA,NA,NA,NA,38,FALSE,18,59.9998855593,"Polish","American English","VSH_Exp2","2016_Mar_23_1803",NA
"Recordings/papu.wav","no","p","p","a","yes","u","papu","Training","bilabial","TrainingItems",1,39,139,40,NA,NA,NA,NA,NA,NA,NA,NA,NA,NA,38,FALSE,18,59.9998855593,"Polish","American English","VSH_Exp2","2016_Mar_23_1803",NA
"Recordings/bidi.wav","yes","b","d","i","yes","i","bidi","Training","bilabial","TrainingItems",1,40,140,60,NA,NA,NA,NA,NA,NA,NA,NA,NA,NA,38,FALSE,18,59.9998855593,"Polish","American English","VSH_Exp2","2016_Mar_23_1803",NA
"Recordings/vuva.wav","yes","v","v","u","no","a","vuva","Training","bilabial","TrainingItems",1,41,141,32,NA,NA,NA,NA,NA,NA,NA,NA,NA,NA,38,FALSE,18,59.9998855593,"Polish","American English","VSH_Exp2","2016_Mar_23_1803",NA
"Recordings/vaza.wav","yes","v","z","a","no","a","vaza","Training","bilabial","TrainingItems",1,42,142,3,NA,NA,NA,NA,NA,NA,NA,NA,NA,NA,38,FALSE,18,59.9998855593,"Polish","American English","VSH_Exp2","2016_Mar_23_1803",NA
"Recordings/safa.wav","no","s","f","a","no","a","safa","Training","alveolar","TrainingItems",1,43,143,31,NA,NA,NA,NA,NA,NA,NA,NA,NA,NA,38,FALSE,18,59.9998855593,"Polish","American English","VSH_Exp2","2016_Mar_23_1803",NA
"Recordings/susi.wav","no","s","s","u","no","i","susi","Training","alveolar","TrainingItems",1,44,144,83,NA,NA,NA,NA,NA,NA,NA,NA,NA,NA,38,FALSE,18,59.9998855593,"Polish","American English","VSH_Exp2","2016_Mar_23_1803",NA
"Recordings/sifa.wav","no","s","f","i","no","a","sifa","Training","alveolar","TrainingItems",1,45,145,20,NA,NA,NA,NA,NA,NA,NA,NA,NA,NA,38,FALSE,18,59.9998855593,"Polish","American English","VSH_Exp2","2016_Mar_23_1803",NA
"Recordings/badi.wav","yes","b","d","a","yes","i","badi","Training","bilabial","TrainingItems",1,46,146,6,NA,NA,NA,NA,NA,NA,NA,NA,NA,NA,38,FALSE,18,59.9998855593,"Polish","American English","VSH_Exp2","2016_Mar_23_1803",NA
"Recordings/babu.wav","yes","b","b","a","yes","u","babu","Training","bilabial","TrainingItems",1,47,147,10,NA,NA,NA,NA,NA,NA,NA,NA,NA,NA,38,FALSE,18,59.9998855593,"Polish","American English","VSH_Exp2","2016_Mar_23_1803",NA
"Recordings/tati.wav","no","t","t","a","yes","i","tati","Training","alveolar","TrainingItems",1,48,148,92,NA,NA,NA,NA,NA,NA,NA,NA,NA,NA,38,FALSE,18,59.9998855593,"Polish","American English","VSH_Exp2","2016_Mar_23_1803",NA
"Recordings/bada.wav","yes","b","d","a","yes","a","bada","Training","bilabial","TrainingItems",1,49,149,13,NA,NA,NA,NA,NA,NA,NA,NA,NA,NA,38,FALSE,18,59.9998855593,"Polish","American English","VSH_Exp2","2016_Mar_23_1803",NA
"Recordings/vivu.wav","yes","v","v","i","no","u","vivu","Training","bilabial","TrainingItems",1,50,150,91,NA,NA,NA,NA,NA,NA,NA,NA,NA,NA,38,FALSE,18,59.9998855593,"Polish","American English","VSH_Exp2","2016_Mar_23_1803",NA
"Recordings/fusa.wav","no","f","s","u","no","a","fusa","Training","bilabial","TrainingItems",1,51,151,77,NA,NA,NA,NA,NA,NA,NA,NA,NA,NA,38,FALSE,18,59.9998855593,"Polish","American English","VSH_Exp2","2016_Mar_23_1803",NA
"Recordings/safi.wav","no","s","f","a","no","i","safi","Training","alveolar","TrainingItems",1,52,152,96,NA,NA,NA,NA,NA,NA,NA,NA,NA,NA,38,FALSE,18,59.9998855593,"Polish","American English","VSH_Exp2","2016_Mar_23_1803",NA
"Recordings/sifi.wav","no","s","f","i","no","i","sifi","Training","alveolar","TrainingItems",1,53,153,45,NA,NA,NA,NA,NA,NA,NA,NA,NA,NA,38,FALSE,18,59.9998855593,"Polish","American English","VSH_Exp2","2016_Mar_23_1803",NA
"Recordings/baba.wav","yes","b","b","a","yes","a","baba","Training","bilabial","TrainingItems",1,54,154,37,NA,NA,NA,NA,NA,NA,NA,NA,NA,NA,38,FALSE,18,59.9998855593,"Polish","American English","VSH_Exp2","2016_Mar_23_1803",NA
"Recordings/fisu.wav","no","f","s","i","no","u","fisu","Training","bilabial","TrainingItems",1,55,155,85,NA,NA,NA,NA,NA,NA,NA,NA,NA,NA,38,FALSE,18,59.9998855593,"Polish","American English","VSH_Exp2","2016_Mar_23_1803",NA
"Recordings/safu.wav","no","s","f","a","no","u","safu","Training","alveolar","TrainingItems",1,56,156,0,NA,NA,NA,NA,NA,NA,NA,NA,NA,NA,38,FALSE,18,59.9998855593,"Polish","American English","VSH_Exp2","2016_Mar_23_1803",NA
"Recordings/sasu.wav","no","s","s","a","no","u","sasu","Training","alveolar","TrainingItems",1,57,157,56,NA,NA,NA,NA,NA,NA,NA,NA,NA,NA,38,FALSE,18,59.9998855593,"Polish","American English","VSH_Exp2","2016_Mar_23_1803",NA
"Recordings/zuzu.wav","yes","z","z","u","no","u","zuzu","Training","alveolar","TrainingItems",1,58,158,97,NA,NA,NA,NA,NA,NA,NA,NA,NA,NA,38,FALSE,18,59.9998855593,"Polish","American English","VSH_Exp2","2016_Mar_23_1803",NA
"Recordings/zizi.wav","yes","z","z","i","no","i","zizi","Training","alveolar","TrainingItems",1,59,159,66,NA,NA,NA,NA,NA,NA,NA,NA,NA,NA,38,FALSE,18,59.9998855593,"Polish","American English","VSH_Exp2","2016_Mar_23_1803",NA
"Recordings/didi.wav","yes","d","d","i","yes","i","didi","Training","alveolar","TrainingItems",1,60,160,42,NA,NA,NA,NA,NA,NA,NA,NA,NA,NA,38,FALSE,18,59.9998855593,"Polish","American English","VSH_Exp2","2016_Mar_23_1803",NA
"Recordings/vuza.wav","yes","v","z","u","no","a","vuza","Training","bilabial","TrainingItems",1,61,161,41,NA,NA,NA,NA,NA,NA,NA,NA,NA,NA,38,FALSE,18,59.9998855593,"Polish","American English","VSH_Exp2","2016_Mar_23_1803",NA
"Recordings/zazi.wav","yes","z","z","a","no","i","zazi","Training","alveolar","TrainingItems",1,62,162,17,NA,NA,NA,NA,NA,NA,NA,NA,NA,NA,38,FALSE,18,59.9998855593,"Polish","American English","VSH_Exp2","2016_Mar_23_1803",NA
"Recordings/fafa.wav","no","f","f","a","no","a","fafa","Training","bilabial","TrainingItems",1,63,163,87,NA,NA,NA,NA,NA,NA,NA,NA,NA,NA,38,FALSE,18,59.9998855593,"Polish","American English","VSH_Exp2","2016_Mar_23_1803",NA
"Recordings/dubi.wav","yes","d","b","u","yes","i","dubi","Training","alveolar","TrainingItems",1,64,164,67,NA,NA,NA,NA,NA,NA,NA,NA,NA,NA,38,FALSE,18,59.9998855593,"Polish","American English","VSH_Exp2","2016_Mar_23_1803",NA
"Recordings/tita.wav","no","t","t","i","yes","a","tita","Training","alveolar","TrainingItems",1,65,165,50,NA,NA,NA,NA,NA,NA,NA,NA,NA,NA,38,FALSE,18,59.9998855593,"Polish","American English","VSH_Exp2","2016_Mar_23_1803",NA
"Recordings/fifi.wav","no","f","f","i","no","i","fifi","Training","bilabial","TrainingItems",1,66,166,38,NA,NA,NA,NA,NA,NA,NA,NA,NA,NA,38,FALSE,18,59.9998855593,"Polish","American English","VSH_Exp2","2016_Mar_23_1803",NA
"Recordings/vizi.wav","yes","v","z","i","no","i","vizi","Training","bilabial","TrainingItems",1,67,167,94,NA,NA,NA,NA,NA,NA,NA,NA,NA,NA,38,FALSE,18,59.9998855593,"Polish","American English","VSH_Exp2","2016_Mar_23_1803",NA
"Recordings/zavu.wav","yes","z","v","a","no","u","zavu","Training","alveolar","TrainingItems",1,68,168,29,NA,NA,NA,NA,NA,NA,NA,NA,NA,NA,38,FALSE,18,59.9998855593,"Polish","American English","VSH_Exp2","2016_Mar_23_1803",NA
"Recordings/vizu.wav","yes","v","z","i","no","u","vizu","Training","bilabial","TrainingItems",1,69,169,72,NA,NA,NA,NA,NA,NA,NA,NA,NA,NA,38,FALSE,18,59.9998855593,"Polish","American English","VSH_Exp2","2016_Mar_23_1803",NA
"Recordings/ziza.wav","yes","z","z","i","no","a","ziza","Training","alveolar","TrainingItems",1,70,170,95,NA,NA,NA,NA,NA,NA,NA,NA,NA,NA,38,FALSE,18,59.9998855593,"Polish","American English","VSH_Exp2","2016_Mar_23_1803",NA
"Recordings/sufu.wav","no","s","f","u","no","u","sufu","Training","alveolar","TrainingItems",1,71,171,49,NA,NA,NA,NA,NA,NA,NA,NA,NA,NA,38,FALSE,18,59.9998855593,"Polish","American English","VSH_Exp2","2016_Mar_23_1803",NA
"Recordings/fusi.wav","no","f","s","u","no","i","fusi","Training","bilabial","TrainingItems",1,72,172,9,NA,NA,NA,NA,NA,NA,NA,NA,NA,NA,38,FALSE,18,59.9998855593,"Polish","American English","VSH_Exp2","2016_Mar_23_1803",NA
"Recordings/zuvu.wav","yes","z","v","u","no","u","zuvu","Training","alveolar","TrainingItems",1,73,173,8,NA,NA,NA,NA,NA,NA,NA,NA,NA,NA,38,FALSE,18,59.9998855593,"Polish","American English","VSH_Exp2","2016_Mar_23_1803",NA
"Recordings/pupa.wav","no","p","p","u","yes","a","pupa","Training","bilabial","TrainingItems",1,74,174,68,NA,NA,NA,NA,NA,NA,NA,NA,NA,NA,38,FALSE,18,59.9998855593,"Polish","American English","VSH_Exp2","2016_Mar_23_1803",NA
"Recordings/vavi.wav","yes","v","v","a","no","i","vavi","Training","bilabial","TrainingItems",1,75,175,86,NA,NA,NA,NA,NA,NA,NA,NA,NA,NA,38,FALSE,18,59.9998855593,"Polish","American English","VSH_Exp2","2016_Mar_23_1803",NA
"Recordings/bibu.wav","yes","b","b","i","yes","u","bibu","Training","bilabial","TrainingItems",1,76,176,21,NA,NA,NA,NA,NA,NA,NA,NA,NA,NA,38,FALSE,18,59.9998855593,"Polish","American English","VSH_Exp2","2016_Mar_23_1803",NA
"Recordings/dudi.wav","yes","d","d","u","yes","i","dudi","Training","alveolar","TrainingItems",1,77,177,57,NA,NA,NA,NA,NA,NA,NA,NA,NA,NA,38,FALSE,18,59.9998855593,"Polish","American English","VSH_Exp2","2016_Mar_23_1803",NA
"Recordings/fufa.wav","no","f","f","u","no","a","fufa","Training","bilabial","TrainingItems",1,78,178,80,NA,NA,NA,NA,NA,NA,NA,NA,NA,NA,38,FALSE,18,59.9998855593,"Polish","American English","VSH_Exp2","2016_Mar_23_1803",NA
"Recordings/pupi.wav","no","p","p","u","yes","i","pupi","Training","bilabial","TrainingItems",1,79,179,62,NA,NA,NA,NA,NA,NA,NA,NA,NA,NA,38,FALSE,18,59.9998855593,"Polish","American English","VSH_Exp2","2016_Mar_23_1803",NA
"Recordings/bibi.wav","yes","b","b","i","yes","i","bibi","Training","bilabial","TrainingItems",1,80,180,33,NA,NA,NA,NA,NA,NA,NA,NA,NA,NA,38,FALSE,18,59.9998855593,"Polish","American English","VSH_Exp2","2016_Mar_23_1803",NA
"Recordings/pipa.wav","no","p","p","i","yes","a","pipa","Training","bilabial","TrainingItems",1,81,181,70,NA,NA,NA,NA,NA,NA,NA,NA,NA,NA,38,FALSE,18,59.9998855593,"Polish","American English","VSH_Exp2","2016_Mar_23_1803",NA
"Recordings/zivu.wav","yes","z","v","i","no","u","zivu","Training","alveolar","TrainingItems",1,82,182,24,NA,NA,NA,NA,NA,NA,NA,NA,NA,NA,38,FALSE,18,59.9998855593,"Polish","American English","VSH_Exp2","2016_Mar_23_1803",NA
"Recordings/zuva.wav","yes","z","v","u","no","a","zuva","Training","alveolar","TrainingItems",1,83,183,15,NA,NA,NA,NA,NA,NA,NA,NA,NA,NA,38,FALSE,18,59.9998855593,"Polish","American English","VSH_Exp2","2016_Mar_23_1803",NA
"Recordings/ziva.wav","yes","z","v","i","no","a","ziva","Training","alveolar","TrainingItems",1,84,184,1,NA,NA,NA,NA,NA,NA,NA,NA,NA,NA,38,FALSE,18,59.9998855593,"Polish","American English","VSH_Exp2","2016_Mar_23_1803",NA
"Recordings/dubu.wav","yes","d","b","u","yes","u","dubu","Training","alveolar","TrainingItems",1,85,185,89,NA,NA,NA,NA,NA,NA,NA,NA,NA,NA,38,FALSE,18,59.9998855593,"Polish","American English","VSH_Exp2","2016_Mar_23_1803",NA
"Recordings/daba.wav","yes","d","b","a","yes","a","daba","Training","alveolar","TrainingItems",1,86,186,74,NA,NA,NA,NA,NA,NA,NA,NA,NA,NA,38,FALSE,18,59.9998855593,"Polish","American English","VSH_Exp2","2016_Mar_23_1803",NA
"Recordings/viva.wav","yes","v","v","i","no","a","viva","Training","bilabial","TrainingItems",1,87,187,78,NA,NA,NA,NA,NA,NA,NA,NA,NA,NA,38,FALSE,18,59.9998855593,"Polish","American English","VSH_Exp2","2016_Mar_23_1803",NA
"Recordings/tuti.wav","no","t","t","u","yes","i","tuti","Training","alveolar","TrainingItems",1,88,188,93,NA,NA,NA,NA,NA,NA,NA,NA,NA,NA,38,FALSE,18,59.9998855593,"Polish","American English","VSH_Exp2","2016_Mar_23_1803",NA
"Recordings/fufu.wav","no","f","f","u","no","u","fufu","Training","bilabial","TrainingItems",1,89,189,61,NA,NA,NA,NA,NA,NA,NA,NA,NA,NA,38,FALSE,18,59.9998855593,"Polish","American English","VSH_Exp2","2016_Mar_23_1803",NA
"Recordings/sisa.wav","no","s","s","i","no","a","sisa","Training","alveolar","TrainingItems",1,90,190,43,NA,NA,NA,NA,NA,NA,NA,NA,NA,NA,38,FALSE,18,59.9998855593,"Polish","American English","VSH_Exp2","2016_Mar_23_1803",NA
"Recordings/vuvu.wav","yes","v","v","u","no","u","vuvu","Training","bilabial","TrainingItems",1,91,191,7,NA,NA,NA,NA,NA,NA,NA,NA,NA,NA,38,FALSE,18,59.9998855593,"Polish","American English","VSH_Exp2","2016_Mar_23_1803",NA
"Recordings/fufi.wav","no","f","f","u","no","i","fufi","Training","bilabial","TrainingItems",1,92,192,79,NA,NA,NA,NA,NA,NA,NA,NA,NA,NA,38,FALSE,18,59.9998855593,"Polish","American English","VSH_Exp2","2016_Mar_23_1803",NA
"Recordings/titi.wav","no","t","t","i","yes","i","titi","Training","alveolar","TrainingItems",1,93,193,19,NA,NA,NA,NA,NA,NA,NA,NA,NA,NA,38,FALSE,18,59.9998855593,"Polish","American English","VSH_Exp2","2016_Mar_23_1803",NA
"Recordings/susu.wav","no","s","s","u","no","u","susu","Training","alveolar","TrainingItems",1,94,194,88,NA,NA,NA,NA,NA,NA,NA,NA,NA,NA,38,FALSE,18,59.9998855593,"Polish","American English","VSH_Exp2","2016_Mar_23_1803",NA
"Recordings/vuvi.wav","yes","v","v","u","no","i","vuvi","Training","bilabial","TrainingItems",1,95,195,14,NA,NA,NA,NA,NA,NA,NA,NA,NA,NA,38,FALSE,18,59.9998855593,"Polish","American English","VSH_Exp2","2016_Mar_23_1803",NA
"Recordings/dadi.wav","yes","d","d","a","yes","i","dadi","Training","alveolar","TrainingItems",1,96,196,39,NA,NA,NA,NA,NA,NA,NA,NA,NA,NA,38,FALSE,18,59.9998855593,"Polish","American English","VSH_Exp2","2016_Mar_23_1803",NA
"Recordings/dida.wav","yes","d","d","i","yes","a","dida","Training","alveolar","TrainingItems",1,97,197,27,NA,NA,NA,NA,NA,NA,NA,NA,NA,NA,38,FALSE,18,59.9998855593,"Polish","American English","VSH_Exp2","2016_Mar_23_1803",NA
"Recordings/duba.wav","yes","d","b","u","yes","a","duba","Training","alveolar","TrainingItems",1,98,198,82,NA,NA,NA,NA,NA,NA,NA,NA,NA,NA,38,FALSE,18,59.9998855593,"Polish","American English","VSH_Exp2","2016_Mar_23_1803",NA
"Recordings/biba.wav","yes","b","b","i","yes","a","biba","Training","bilabial","TrainingItems",1,99,199,59,NA,NA,NA,NA,NA,NA,NA,NA,NA,NA,38,FALSE,18,59.9998855593,"Polish","American English","VSH_Exp2","2016_Mar_23_1803",NA
NA,NA,NA,NA,NA,NA,NA,NA,NA,NA,NA,NA,NA,NA,NA,NA,NA,NA,NA,NA,NA,"space",7.82492399216,NA,NA,38,FALSE,18,59.9998855593,"Polish","American English","VSH_Exp2","2016_Mar_23_1803",NA
"Recordings/baba.wav","yes","b","b","a","yes","a","baba","Test","bilabial","OldTestStimuli",NA,NA,NA,NA,0,0,0,9,NA,NA,NA,NA,"Yes",3.039,38,FALSE,18,59.9998855593,"Polish","American English","VSH_Exp2","2016_Mar_23_1803",NA
"Recordings/pifu.wav","no","p","f","i","yes","u","pifu","Controls","bilabial","VoicingControls",NA,NA,NA,NA,0,1,1,49,NA,NA,NA,NA,"No",1.721,38,FALSE,18,59.9998855593,"Polish","American English","VSH_Exp2","2016_Mar_23_1803",NA
"Recordings/fasi.wav","no","f","s","a","no","i","fasi","Test","bilabial","NewWordTestStimuli",NA,NA,NA,NA,0,2,2,24,NA,NA,NA,NA,"Yes",1.32,38,FALSE,18,59.9998855593,"Polish","American English","VSH_Exp2","2016_Mar_23_1803",NA
"Recordings/sidi.wav","no","s","d","i","no","i","sidi","Controls","alveolar","NoPatternControls",NA,NA,NA,NA,0,3,3,50,NA,NA,NA,NA,"No",1.403,38,FALSE,18,59.9998855593,"Polish","American English","VSH_Exp2","2016_Mar_23_1803",NA
"Recordings/satu.wav","no","s","t","a","no","u","satu","Controls","alveolar","VoicingControls",NA,NA,NA,NA,0,4,4,45,NA,NA,NA,NA,"Yes",1.086,38,FALSE,18,59.9998855593,"Polish","American English","VSH_Exp2","2016_Mar_23_1803",NA
"Recordings/bufa.wav","yes","b","f","u","yes","a","bufa","Controls","bilabial","NoPatternControls",NA,NA,NA,NA,0,5,5,52,NA,NA,NA,NA,"No",2.388,38,FALSE,18,59.9998855593,"Polish","American English","VSH_Exp2","2016_Mar_23_1803",NA
"Recordings/viba.wav","yes","v","b","i","no","a","viba","Controls","bilabial","VoicingControls",NA,NA,NA,NA,0,6,6,43,NA,NA,NA,NA,"No",2.121,38,FALSE,18,59.9998855593,"Polish","American English","VSH_Exp2","2016_Mar_23_1803",NA
"Recordings/butu.wav","yes","b","t","u","yes","u","butu","Controls","bilabial","StopControls",NA,NA,NA,NA,0,7,7,32,NA,NA,NA,NA,"Yes",1.754,38,FALSE,18,59.9998855593,"Polish","American English","VSH_Exp2","2016_Mar_23_1803",NA
"Recordings/fuba.wav","no","f","b","u","no","a","fuba","Controls","bilabial","NoPatternControls",NA,NA,NA,NA,0,8,8,54,NA,NA,NA,NA,"No",2.188,38,FALSE,18,59.9998855593,"Polish","American English","VSH_Exp2","2016_Mar_23_1803",NA
"Recordings/bubi.wav","yes","b","b","u","yes","i","bubi","Test","bilabial","OldTestStimuli",NA,NA,NA,NA,0,9,9,2,NA,NA,NA,NA,"Yes",1.553,38,FALSE,18,59.9998855593,"Polish","American English","VSH_Exp2","2016_Mar_23_1803",NA
"Recordings/sasu.wav","no","s","s","a","no","u","sasu","Test","alveolar","OldTestStimuli",NA,NA,NA,NA,0,10,10,5,NA,NA,NA,NA,"Yes",0.753,38,FALSE,18,59.9998855593,"Polish","American English","VSH_Exp2","2016_Mar_23_1803",NA
"Recordings/tipa.wav","no","t","p","i","yes","a","tipa","Test","alveolar","NewConsTestStimuli",NA,NA,NA,NA,0,11,11,17,NA,NA,NA,NA,"Yes",0.803,38,FALSE,18,59.9998855593,"Polish","American English","VSH_Exp2","2016_Mar_23_1803",NA
"Recordings/buvu.wav","yes","b","v","u","yes","u","buvu","Controls","bilabial","VoicingControls",NA,NA,NA,NA,0,12,12,46,NA,NA,NA,NA,"Yes",1.054,38,FALSE,18,59.9998855593,"Polish","American English","VSH_Exp2","2016_Mar_23_1803",NA
"Recordings/tutu.wav","no","t","t","u","yes","u","tutu","Test","alveolar","NewWordTestStimuli",NA,NA,NA,NA,0,13,13,20,NA,NA,NA,NA,"Yes",0.72,38,FALSE,18,59.9998855593,"Polish","American English","VSH_Exp2","2016_Mar_23_1803",NA
"Recordings/bupu.wav","yes","b","p","u","yes","u","bupu","Controls","bilabial","StopControls",NA,NA,NA,NA,0,14,14,36,NA,NA,NA,NA,"Yes",0.953,38,FALSE,18,59.9998855593,"Polish","American English","VSH_Exp2","2016_Mar_23_1803",NA
"Recordings/fupa.wav","no","f","p","u","no","a","fupa","Controls","bilabial","VoicingControls",NA,NA,NA,NA,0,15,15,44,NA,NA,NA,NA,"Yes",0.82,38,FALSE,18,59.9998855593,"Polish","American English","VSH_Exp2","2016_Mar_23_1803",NA
"Recordings/vazi.wav","yes","v","z","a","no","i","vazi","Test","bilabial","NewWordTestStimuli",NA,NA,NA,NA,0,16,16,27,NA,NA,NA,NA,"Yes",0.836,38,FALSE,18,59.9998855593,"Polish","American English","VSH_Exp2","2016_Mar_23_1803",NA
"Recordings/zizu.wav","yes","z","z","i","no","u","zizu","Test","alveolar","NewWordTestStimuli",NA,NA,NA,NA,0,17,17,28,NA,NA,NA,NA,"Yes",0.752,38,FALSE,18,59.9998855593,"Polish","American English","VSH_Exp2","2016_Mar_23_1803",NA
"Recordings/pivu.wav","no","p","v","i","yes","u","pivu","Controls","bilabial","NoPatternControls",NA,NA,NA,NA,0,18,18,59,NA,NA,NA,NA,"No",1.269,38,FALSE,18,59.9998855593,"Polish","American English","VSH_Exp2","2016_Mar_23_1803",NA
"Recordings/sisi.wav","no","s","s","i","no","i","sisi","Test","alveolar","OldTestStimuli",NA,NA,NA,NA,0,19,19,0,NA,NA,NA,NA,"Yes",1.687,38,FALSE,18,59.9998855593,"Polish","American English","VSH_Exp2","2016_Mar_23_1803",NA
"Recordings/savi.wav","no","s","v","a","no","i","savi","Controls","alveolar","StopControls",NA,NA,NA,NA,0,20,20,30,NA,NA,NA,NA,"No",1.388,38,FALSE,18,59.9998855593,"Polish","American English","VSH_Exp2","2016_Mar_23_1803",NA
"Recordings/zita.wav","yes","z","t","i","no","a","zita","Controls","alveolar","NoPatternControls",NA,NA,NA,NA,0,21,21,51,NA,NA,NA,NA,"No",0.92,38,FALSE,18,59.9998855593,"Polish","American English","VSH_Exp2","2016_Mar_23_1803",NA
"Recordings/vifi.wav","yes","v","f","i","no","i","vifi","Controls","bilabial","StopControls",NA,NA,NA,NA,0,22,22,38,NA,NA,NA,NA,"Yes",1.571,38,FALSE,18,59.9998855593,"Polish","American English","VSH_Exp2","2016_Mar_23_1803",NA
"Recordings/vuzu.wav","yes","v","z","u","no","u","vuzu","Test","bilabial","NewWordTestStimuli",NA,NA,NA,NA,0,23,23,23,NA,NA,NA,NA,"Yes",0.703,38,FALSE,18,59.9998855593,"Polish","American English","VSH_Exp2","2016_Mar_23_1803",NA
"Recordings/sufa.wav","no","s","f","u","no","a","sufa","Test","alveolar","NewWordTestStimuli",NA,NA,NA,NA,0,24,24,25,NA,NA,NA,NA,"Yes",1.004,38,FALSE,18,59.9998855593,"Polish","American English","VSH_Exp2","2016_Mar_23_1803",NA
"Recordings/zadu.wav","yes","z","d","a","no","u","zadu","Controls","alveolar","VoicingControls",NA,NA,NA,NA,0,25,25,41,NA,NA,NA,NA,"Yes",0.72,38,FALSE,18,59.9998855593,"Polish","American English","VSH_Exp2","2016_Mar_23_1803",NA
"Recordings/pita.wav","no","p","t","i","yes","a","pita","Test","bilabial","NewConsTestStimuli",NA,NA,NA,NA,0,26,26,19,NA,NA,NA,NA,"No",3.239,38,FALSE,18,59.9998855593,"Polish","American English","VSH_Exp2","2016_Mar_23_1803",NA
"Recordings/vibi.wav","yes","v","b","i","no","i","vibi","Controls","bilabial","VoicingControls",NA,NA,NA,NA,0,27,27,48,NA,NA,NA,NA,"Yes",3.055,38,FALSE,18,59.9998855593,"Polish","American English","VSH_Exp2","2016_Mar_23_1803",NA
"Recordings/tupa.wav","no","t","p","u","yes","a","tupa","Test","alveolar","NewConsTestStimuli",NA,NA,NA,NA,0,28,28,10,NA,NA,NA,NA,"Yes",1.003,38,FALSE,18,59.9998855593,"Polish","American English","VSH_Exp2","2016_Mar_23_1803",NA
"Recordings/zasu.wav","yes","z","s","a","no","u","zasu","Controls","alveolar","StopControls",NA,NA,NA,NA,0,29,29,31,NA,NA,NA,NA,"Yes",2.973,38,FALSE,18,59.9998855593,"Polish","American English","VSH_Exp2","2016_Mar_23_1803",NA
"Recordings/budi.wav","yes","b","d","u","yes","i","budi","Test","bilabial","NewWordTestStimuli",NA,NA,NA,NA,0,30,30,22,NA,NA,NA,NA,"Yes",0.753,38,FALSE,18,59.9998855593,"Polish","American English","VSH_Exp2","2016_Mar_23_1803",NA
"Recordings/buzu.wav","yes","b","z","u","yes","u","buzu","Controls","bilabial","VoicingControls",NA,NA,NA,NA,0,31,31,42,NA,NA,NA,NA,"Yes",0.737,38,FALSE,18,59.9998855593,"Polish","American English","VSH_Exp2","2016_Mar_23_1803",NA
"Recordings/tapu.wav","no","t","p","a","yes","u","tapu","Test","alveolar","NewConsTestStimuli",NA,NA,NA,NA,0,32,32,16,NA,NA,NA,NA,"No",3.957,38,FALSE,18,59.9998855593,"Polish","American English","VSH_Exp2","2016_Mar_23_1803",NA
"Recordings/zavi.wav","yes","z","v","a","no","i","zavi","Test","alveolar","NewWordTestStimuli",NA,NA,NA,NA,0,33,33,29,NA,NA,NA,NA,"No",4.323,38,FALSE,18,59.9998855593,"Polish","American English","VSH_Exp2","2016_Mar_23_1803",NA
"Recordings/sapu.wav","no","s","p","a","no","u","sapu","Controls","alveolar","VoicingControls",NA,NA,NA,NA,0,34,34,40,NA,NA,NA,NA,"Yes",1.404,38,FALSE,18,59.9998855593,"Polish","American English","VSH_Exp2","2016_Mar_23_1803",NA
"Recordings/fusi.wav","no","f","s","u","no","i","fusi","Test","bilabial","OldTestStimuli",NA,NA,NA,NA,0,35,35,6,NA,NA,NA,NA,"Yes",0.787,38,FALSE,18,59.9998855593,"Polish","American English","VSH_Exp2","2016_Mar_23_1803",NA
"Recordings/duba.wav","yes","d","b","u","yes","a","duba","Test","alveolar","OldTestStimuli",NA,NA,NA,NA,0,36,36,7,NA,NA,NA,NA,"Yes",0.753,38,FALSE,18,59.9998855593,"Polish","American English","VSH_Exp2","2016_Mar_23_1803",NA
"Recordings/zazu.wav","yes","z","z","a","no","u","zazu","Test","alveolar","NewWordTestStimuli",NA,NA,NA,NA,0,37,37,26,NA,NA,NA,NA,"Yes",0.753,38,FALSE,18,59.9998855593,"Polish","American English","VSH_Exp2","2016_Mar_23_1803",NA
"Recordings/putu.wav","no","p","t","u","yes","u","putu","Test","bilabial","NewConsTestStimuli",NA,NA,NA,NA,0,38,38,18,NA,NA,NA,NA,"Yes",0.77,38,FALSE,18,59.9998855593,"Polish","American English","VSH_Exp2","2016_Mar_23_1803",NA
"Recordings/vadi.wav","yes","v","d","a","no","i","vadi","Controls","bilabial","VoicingControls",NA,NA,NA,NA,0,39,39,47,NA,NA,NA,NA,"No",3.389,38,FALSE,18,59.9998855593,"Polish","American English","VSH_Exp2","2016_Mar_23_1803",NA
"Recordings/vasi.wav","yes","v","s","a","no","i","vasi","Controls","bilabial","StopControls",NA,NA,NA,NA,0,40,40,37,NA,NA,NA,NA,"No",0.988,38,FALSE,18,59.9998855593,"Polish","American English","VSH_Exp2","2016_Mar_23_1803",NA
"Recordings/sazi.wav","no","s","z","a","no","i","sazi","Controls","alveolar","StopControls",NA,NA,NA,NA,0,41,41,35,NA,NA,NA,NA,"No",0.752,38,FALSE,18,59.9998855593,"Polish","American English","VSH_Exp2","2016_Mar_23_1803",NA
"Recordings/sabu.wav","no","s","b","a","no","u","sabu","Controls","alveolar","NoPatternControls",NA,NA,NA,NA,0,42,42,55,NA,NA,NA,NA,"Yes",1.536,38,FALSE,18,59.9998855593,"Polish","American English","VSH_Exp2","2016_Mar_23_1803",NA
"Recordings/vata.wav","yes","v","t","a","no","a","vata","Controls","bilabial","NoPatternControls",NA,NA,NA,NA,0,43,43,57,NA,NA,NA,NA,"Yes",2.271,38,FALSE,18,59.9998855593,"Polish","American English","VSH_Exp2","2016_Mar_23_1803",NA
"Recordings/pibu.wav","no","p","b","i","yes","u","pibu","Controls","bilabial","StopControls",NA,NA,NA,NA,0,44,44,39,NA,NA,NA,NA,"No",1.371,38,FALSE,18,59.9998855593,"Polish","American English","VSH_Exp2","2016_Mar_23_1803",NA
"Recordings/pitu.wav","no","p","t","i","yes","u","pitu","Test","bilabial","NewConsTestStimuli",NA,NA,NA,NA,0,45,45,14,NA,NA,NA,NA,"Yes",1.437,38,FALSE,18,59.9998855593,"Polish","American English","VSH_Exp2","2016_Mar_23_1803",NA
"Recordings/vati.wav","yes","v","t","a","no","i","vati","Controls","bilabial","NoPatternControls",NA,NA,NA,NA,0,46,46,53,NA,NA,NA,NA,"Yes",0.903,38,FALSE,18,59.9998855593,"Polish","American English","VSH_Exp2","2016_Mar_23_1803",NA
"Recordings/vifa.wav","yes","v","f","i","no","a","vifa","Controls","bilabial","StopControls",NA,NA,NA,NA,0,47,47,33,NA,NA,NA,NA,"Yes",0.87,38,FALSE,18,59.9998855593,"Polish","American English","VSH_Exp2","2016_Mar_23_1803",NA
"Recordings/zaza.wav","yes","z","z","a","no","a","zaza","Test","alveolar","NewWordTestStimuli",NA,NA,NA,NA,0,48,48,21,NA,NA,NA,NA,"No",1.786,38,FALSE,18,59.9998855593,"Polish","American English","VSH_Exp2","2016_Mar_23_1803",NA
"Recordings/zuza.wav","yes","z","z","u","no","a","zuza","Test","alveolar","OldTestStimuli",NA,NA,NA,NA,0,49,49,4,NA,NA,NA,NA,"No",3.039,38,FALSE,18,59.9998855593,"Polish","American English","VSH_Exp2","2016_Mar_23_1803",NA
"Recordings/bafu.wav","yes","b","f","a","yes","u","bafu","Controls","bilabial","NoPatternControls",NA,NA,NA,NA,0,50,50,56,NA,NA,NA,NA,"Yes",0.987,38,FALSE,18,59.9998855593,"Polish","American English","VSH_Exp2","2016_Mar_23_1803",NA
"Recordings/buda.wav","yes","b","d","u","yes","a","buda","Test","bilabial","OldTestStimuli",NA,NA,NA,NA,0,51,51,8,NA,NA,NA,NA,"Yes",0.687,38,FALSE,18,59.9998855593,"Polish","American English","VSH_Exp2","2016_Mar_23_1803",NA
"Recordings/daba.wav","yes","d","b","a","yes","a","daba","Test","alveolar","OldTestStimuli",NA,NA,NA,NA,0,52,52,3,NA,NA,NA,NA,"Yes",1.455,38,FALSE,18,59.9998855593,"Polish","American English","VSH_Exp2","2016_Mar_23_1803",NA
"Recordings/pati.wav","no","p","t","a","yes","i","pati","Test","bilabial","NewConsTestStimuli",NA,NA,NA,NA,0,53,53,12,NA,NA,NA,NA,"Yes",0.752,38,FALSE,18,59.9998855593,"Polish","American English","VSH_Exp2","2016_Mar_23_1803",NA
"Recordings/tupu.wav","no","t","p","u","yes","u","tupu","Test","alveolar","NewConsTestStimuli",NA,NA,NA,NA,0,54,54,13,NA,NA,NA,NA,"Yes",0.669,38,FALSE,18,59.9998855593,"Polish","American English","VSH_Exp2","2016_Mar_23_1803",NA
"Recordings/puta.wav","no","p","t","u","yes","a","puta","Test","bilabial","NewConsTestStimuli",NA,NA,NA,NA,0,55,55,15,NA,NA,NA,NA,"No",1.755,38,FALSE,18,59.9998855593,"Polish","American English","VSH_Exp2","2016_Mar_23_1803",NA
"Recordings/fizi.wav","no","f","z","i","no","i","fizi","Controls","bilabial","StopControls",NA,NA,NA,NA,0,56,56,34,NA,NA,NA,NA,"No",1.188,38,FALSE,18,59.9998855593,"Polish","American English","VSH_Exp2","2016_Mar_23_1803",NA
"Recordings/vupi.wav","yes","v","p","u","no","i","vupi","Controls","bilabial","NoPatternControls",NA,NA,NA,NA,0,57,57,58,NA,NA,NA,NA,"No",1.104,38,FALSE,18,59.9998855593,"Polish","American English","VSH_Exp2","2016_Mar_23_1803",NA
"Recordings/tipi.wav","no","t","p","i","yes","i","tipi","Test","alveolar","NewConsTestStimuli",NA,NA,NA,NA,0,58,58,11,NA,NA,NA,NA,"Yes",1.037,38,FALSE,18,59.9998855593,"Polish","American English","VSH_Exp2","2016_Mar_23_1803",NA
"Recordings/vivu.wav","yes","v","v","i","no","u","vivu","Test","bilabial","OldTestStimuli",NA,NA,NA,NA,0,59,59,1,NA,NA,NA,NA,"Yes",0.919,38,FALSE,18,59.9998855593,"Polish","American English","VSH_Exp2","2016_Mar_23_1803",NA
