"SOUND","VOICING","SEGMENT","SEGMENT3","SEGMENT2","STOP","SEGMENT4","STIMULUS","GENERAL_TYPE","PLACE","TYPE","trials.thisRepN","trials.thisTrialN","trials.thisN","trials.thisIndex","trials_2.thisRepN","trials_2.thisTrialN","trials_2.thisN","trials_2.thisIndex","SpaceBar.keys","SpaceBar.rt","key_resp_2.keys","key_resp_2.rt","rating.response","rating.rt","participant","Gender","Age","frameRate","OtherLanguages","NativeLanguage","expName","date","X34"
NA,NA,NA,NA,NA,NA,NA,NA,NA,NA,NA,NA,NA,NA,NA,NA,NA,NA,NA,"space",3.33731293678,NA,NA,NA,NA,41,FALSE,19,60.9261734048,NA,"American English","VSH_Exp2","2016_Mar_23_1803",NA
"Recordings/vivi.wav","yes","v","v","i","no","i","vivi","Training","bilabial","TrainingItems",0,0,0,47,NA,NA,NA,NA,NA,NA,NA,NA,NA,NA,41,FALSE,19,60.9261734048,NA,"American English","VSH_Exp2","2016_Mar_23_1803",NA
"Recordings/bada.wav","yes","b","d","a","yes","a","bada","Training","bilabial","TrainingItems",0,1,1,72,NA,NA,NA,NA,NA,NA,NA,NA,NA,NA,41,FALSE,19,60.9261734048,NA,"American English","VSH_Exp2","2016_Mar_23_1803",NA
"Recordings/vuzu.wav","yes","v","z","u","no","u","vuzu","Training","bilabial","TrainingItems",0,2,2,33,NA,NA,NA,NA,NA,NA,NA,NA,NA,NA,41,FALSE,19,60.9261734048,NA,"American English","VSH_Exp2","2016_Mar_23_1803",NA
"Recordings/sisu.wav","no","s","s","i","no","u","sisu","Training","alveolar","TrainingItems",0,3,3,38,NA,NA,NA,NA,NA,NA,NA,NA,NA,NA,41,FALSE,19,60.9261734048,NA,"American English","VSH_Exp2","2016_Mar_23_1803",NA
"Recordings/vizu.wav","yes","v","z","i","no","u","vizu","Training","bilabial","TrainingItems",0,4,4,41,NA,NA,NA,NA,NA,NA,NA,NA,NA,NA,41,FALSE,19,60.9261734048,NA,"American English","VSH_Exp2","2016_Mar_23_1803",NA
"Recordings/fufu.wav","no","f","f","u","no","u","fufu","Training","bilabial","TrainingItems",0,5,5,63,NA,NA,NA,NA,NA,NA,NA,NA,NA,NA,41,FALSE,19,60.9261734048,NA,"American English","VSH_Exp2","2016_Mar_23_1803",NA
"Recordings/dadu.wav","yes","d","d","a","yes","u","dadu","Training","alveolar","TrainingItems",0,6,6,70,NA,NA,NA,NA,NA,NA,NA,NA,NA,NA,41,FALSE,19,60.9261734048,NA,"American English","VSH_Exp2","2016_Mar_23_1803",NA
"Recordings/susu.wav","no","s","s","u","no","u","susu","Training","alveolar","TrainingItems",0,7,7,53,NA,NA,NA,NA,NA,NA,NA,NA,NA,NA,41,FALSE,19,60.9261734048,NA,"American English","VSH_Exp2","2016_Mar_23_1803",NA
"Recordings/dabi.wav","yes","d","b","a","yes","i","dabi","Training","alveolar","TrainingItems",0,8,8,12,NA,NA,NA,NA,NA,NA,NA,NA,NA,NA,41,FALSE,19,60.9261734048,NA,"American English","VSH_Exp2","2016_Mar_23_1803",NA
"Recordings/pipu.wav","no","p","p","i","yes","u","pipu","Training","bilabial","TrainingItems",0,9,9,50,NA,NA,NA,NA,NA,NA,NA,NA,NA,NA,41,FALSE,19,60.9261734048,NA,"American English","VSH_Exp2","2016_Mar_23_1803",NA
"Recordings/fufi.wav","no","f","f","u","no","i","fufi","Training","bilabial","TrainingItems",0,10,10,95,NA,NA,NA,NA,NA,NA,NA,NA,NA,NA,41,FALSE,19,60.9261734048,NA,"American English","VSH_Exp2","2016_Mar_23_1803",NA
"Recordings/vavi.wav","yes","v","v","a","no","i","vavi","Training","bilabial","TrainingItems",0,11,11,59,NA,NA,NA,NA,NA,NA,NA,NA,NA,NA,41,FALSE,19,60.9261734048,NA,"American English","VSH_Exp2","2016_Mar_23_1803",NA
"Recordings/vava.wav","yes","v","v","a","no","a","vava","Training","bilabial","TrainingItems",0,12,12,39,NA,NA,NA,NA,NA,NA,NA,NA,NA,NA,41,FALSE,19,60.9261734048,NA,"American English","VSH_Exp2","2016_Mar_23_1803",NA
"Recordings/sasu.wav","no","s","s","a","no","u","sasu","Training","alveolar","TrainingItems",0,13,13,89,NA,NA,NA,NA,NA,NA,NA,NA,NA,NA,41,FALSE,19,60.9261734048,NA,"American English","VSH_Exp2","2016_Mar_23_1803",NA
"Recordings/vizi.wav","yes","v","z","i","no","i","vizi","Training","bilabial","TrainingItems",0,14,14,7,NA,NA,NA,NA,NA,NA,NA,NA,NA,NA,41,FALSE,19,60.9261734048,NA,"American English","VSH_Exp2","2016_Mar_23_1803",NA
"Recordings/dibu.wav","yes","d","b","i","yes","u","dibu","Training","alveolar","TrainingItems",0,15,15,28,NA,NA,NA,NA,NA,NA,NA,NA,NA,NA,41,FALSE,19,60.9261734048,NA,"American English","VSH_Exp2","2016_Mar_23_1803",NA
"Recordings/papa.wav","no","p","p","a","yes","a","papa","Training","bilabial","TrainingItems",0,16,16,61,NA,NA,NA,NA,NA,NA,NA,NA,NA,NA,41,FALSE,19,60.9261734048,NA,"American English","VSH_Exp2","2016_Mar_23_1803",NA
"Recordings/sufu.wav","no","s","f","u","no","u","sufu","Training","alveolar","TrainingItems",0,17,17,79,NA,NA,NA,NA,NA,NA,NA,NA,NA,NA,41,FALSE,19,60.9261734048,NA,"American English","VSH_Exp2","2016_Mar_23_1803",NA
"Recordings/dubu.wav","yes","d","b","u","yes","u","dubu","Training","alveolar","TrainingItems",0,18,18,14,NA,NA,NA,NA,NA,NA,NA,NA,NA,NA,41,FALSE,19,60.9261734048,NA,"American English","VSH_Exp2","2016_Mar_23_1803",NA
"Recordings/tata.wav","no","t","t","a","yes","a","tata","Training","alveolar","TrainingItems",0,19,19,25,NA,NA,NA,NA,NA,NA,NA,NA,NA,NA,41,FALSE,19,60.9261734048,NA,"American English","VSH_Exp2","2016_Mar_23_1803",NA
"Recordings/titi.wav","no","t","t","i","yes","i","titi","Training","alveolar","TrainingItems",0,20,20,81,NA,NA,NA,NA,NA,NA,NA,NA,NA,NA,41,FALSE,19,60.9261734048,NA,"American English","VSH_Exp2","2016_Mar_23_1803",NA
"Recordings/duba.wav","yes","d","b","u","yes","a","duba","Training","alveolar","TrainingItems",0,21,21,90,NA,NA,NA,NA,NA,NA,NA,NA,NA,NA,41,FALSE,19,60.9261734048,NA,"American English","VSH_Exp2","2016_Mar_23_1803",NA
"Recordings/sisa.wav","no","s","s","i","no","a","sisa","Training","alveolar","TrainingItems",0,22,22,22,NA,NA,NA,NA,NA,NA,NA,NA,NA,NA,41,FALSE,19,60.9261734048,NA,"American English","VSH_Exp2","2016_Mar_23_1803",NA
"Recordings/dudi.wav","yes","d","d","u","yes","i","dudi","Training","alveolar","TrainingItems",0,23,23,0,NA,NA,NA,NA,NA,NA,NA,NA,NA,NA,41,FALSE,19,60.9261734048,NA,"American English","VSH_Exp2","2016_Mar_23_1803",NA
"Recordings/didi.wav","yes","d","d","i","yes","i","didi","Training","alveolar","TrainingItems",0,24,24,48,NA,NA,NA,NA,NA,NA,NA,NA,NA,NA,41,FALSE,19,60.9261734048,NA,"American English","VSH_Exp2","2016_Mar_23_1803",NA
"Recordings/fusi.wav","no","f","s","u","no","i","fusi","Training","bilabial","TrainingItems",0,25,25,77,NA,NA,NA,NA,NA,NA,NA,NA,NA,NA,41,FALSE,19,60.9261734048,NA,"American English","VSH_Exp2","2016_Mar_23_1803",NA
"Recordings/zazi.wav","yes","z","z","a","no","i","zazi","Training","alveolar","TrainingItems",0,26,26,94,NA,NA,NA,NA,NA,NA,NA,NA,NA,NA,41,FALSE,19,60.9261734048,NA,"American English","VSH_Exp2","2016_Mar_23_1803",NA
"Recordings/sufi.wav","no","s","f","u","no","i","sufi","Training","alveolar","TrainingItems",0,27,27,52,NA,NA,NA,NA,NA,NA,NA,NA,NA,NA,41,FALSE,19,60.9261734048,NA,"American English","VSH_Exp2","2016_Mar_23_1803",NA
"Recordings/babu.wav","yes","b","b","a","yes","u","babu","Training","bilabial","TrainingItems",0,28,28,68,NA,NA,NA,NA,NA,NA,NA,NA,NA,NA,41,FALSE,19,60.9261734048,NA,"American English","VSH_Exp2","2016_Mar_23_1803",NA
"Recordings/zavi.wav","yes","z","v","a","no","i","zavi","Training","alveolar","TrainingItems",0,29,29,83,NA,NA,NA,NA,NA,NA,NA,NA,NA,NA,41,FALSE,19,60.9261734048,NA,"American English","VSH_Exp2","2016_Mar_23_1803",NA
"Recordings/zizu.wav","yes","z","z","i","no","u","zizu","Training","alveolar","TrainingItems",0,30,30,30,NA,NA,NA,NA,NA,NA,NA,NA,NA,NA,41,FALSE,19,60.9261734048,NA,"American English","VSH_Exp2","2016_Mar_23_1803",NA
"Recordings/zuza.wav","yes","z","z","u","no","a","zuza","Training","alveolar","TrainingItems",0,31,31,13,NA,NA,NA,NA,NA,NA,NA,NA,NA,NA,41,FALSE,19,60.9261734048,NA,"American English","VSH_Exp2","2016_Mar_23_1803",NA
"Recordings/tutu.wav","no","t","t","u","yes","u","tutu","Training","alveolar","TrainingItems",0,32,32,62,NA,NA,NA,NA,NA,NA,NA,NA,NA,NA,41,FALSE,19,60.9261734048,NA,"American English","VSH_Exp2","2016_Mar_23_1803",NA
"Recordings/zaza.wav","yes","z","z","a","no","a","zaza","Training","alveolar","TrainingItems",0,33,33,2,NA,NA,NA,NA,NA,NA,NA,NA,NA,NA,41,FALSE,19,60.9261734048,NA,"American English","VSH_Exp2","2016_Mar_23_1803",NA
"Recordings/buba.wav","yes","b","b","u","yes","a","buba","Training","bilabial","TrainingItems",0,34,34,85,NA,NA,NA,NA,NA,NA,NA,NA,NA,NA,41,FALSE,19,60.9261734048,NA,"American English","VSH_Exp2","2016_Mar_23_1803",NA
"Recordings/papi.wav","no","p","p","a","yes","i","papi","Training","bilabial","TrainingItems",0,35,35,67,NA,NA,NA,NA,NA,NA,NA,NA,NA,NA,41,FALSE,19,60.9261734048,NA,"American English","VSH_Exp2","2016_Mar_23_1803",NA
"Recordings/susa.wav","no","s","s","u","no","a","susa","Training","alveolar","TrainingItems",0,36,36,56,NA,NA,NA,NA,NA,NA,NA,NA,NA,NA,41,FALSE,19,60.9261734048,NA,"American English","VSH_Exp2","2016_Mar_23_1803",NA
"Recordings/zuva.wav","yes","z","v","u","no","a","zuva","Training","alveolar","TrainingItems",0,37,37,71,NA,NA,NA,NA,NA,NA,NA,NA,NA,NA,41,FALSE,19,60.9261734048,NA,"American English","VSH_Exp2","2016_Mar_23_1803",NA
"Recordings/fifi.wav","no","f","f","i","no","i","fifi","Training","bilabial","TrainingItems",0,38,38,58,NA,NA,NA,NA,NA,NA,NA,NA,NA,NA,41,FALSE,19,60.9261734048,NA,"American English","VSH_Exp2","2016_Mar_23_1803",NA
"Recordings/sufa.wav","no","s","f","u","no","a","sufa","Training","alveolar","TrainingItems",0,39,39,42,NA,NA,NA,NA,NA,NA,NA,NA,NA,NA,41,FALSE,19,60.9261734048,NA,"American English","VSH_Exp2","2016_Mar_23_1803",NA
"Recordings/vuzi.wav","yes","v","z","u","no","i","vuzi","Training","bilabial","TrainingItems",0,40,40,86,NA,NA,NA,NA,NA,NA,NA,NA,NA,NA,41,FALSE,19,60.9261734048,NA,"American English","VSH_Exp2","2016_Mar_23_1803",NA
"Recordings/dida.wav","yes","d","d","i","yes","a","dida","Training","alveolar","TrainingItems",0,41,41,57,NA,NA,NA,NA,NA,NA,NA,NA,NA,NA,41,FALSE,19,60.9261734048,NA,"American English","VSH_Exp2","2016_Mar_23_1803",NA
"Recordings/tati.wav","no","t","t","a","yes","i","tati","Training","alveolar","TrainingItems",0,42,42,84,NA,NA,NA,NA,NA,NA,NA,NA,NA,NA,41,FALSE,19,60.9261734048,NA,"American English","VSH_Exp2","2016_Mar_23_1803",NA
"Recordings/sifa.wav","no","s","f","i","no","a","sifa","Training","alveolar","TrainingItems",0,43,43,49,NA,NA,NA,NA,NA,NA,NA,NA,NA,NA,41,FALSE,19,60.9261734048,NA,"American English","VSH_Exp2","2016_Mar_23_1803",NA
"Recordings/pipa.wav","no","p","p","i","yes","a","pipa","Training","bilabial","TrainingItems",0,44,44,60,NA,NA,NA,NA,NA,NA,NA,NA,NA,NA,41,FALSE,19,60.9261734048,NA,"American English","VSH_Exp2","2016_Mar_23_1803",NA
"Recordings/bubu.wav","yes","b","b","u","yes","u","bubu","Training","bilabial","TrainingItems",0,45,45,5,NA,NA,NA,NA,NA,NA,NA,NA,NA,NA,41,FALSE,19,60.9261734048,NA,"American English","VSH_Exp2","2016_Mar_23_1803",NA
"Recordings/babi.wav","yes","b","b","a","yes","i","babi","Training","bilabial","TrainingItems",0,46,46,93,NA,NA,NA,NA,NA,NA,NA,NA,NA,NA,41,FALSE,19,60.9261734048,NA,"American English","VSH_Exp2","2016_Mar_23_1803",NA
"Recordings/badu.wav","yes","b","d","a","yes","u","badu","Training","bilabial","TrainingItems",0,47,47,75,NA,NA,NA,NA,NA,NA,NA,NA,NA,NA,41,FALSE,19,60.9261734048,NA,"American English","VSH_Exp2","2016_Mar_23_1803",NA
"Recordings/fasu.wav","no","f","s","a","no","u","fasu","Training","bilabial","TrainingItems",0,48,48,10,NA,NA,NA,NA,NA,NA,NA,NA,NA,NA,41,FALSE,19,60.9261734048,NA,"American English","VSH_Exp2","2016_Mar_23_1803",NA
"Recordings/fasi.wav","no","f","s","a","no","i","fasi","Training","bilabial","TrainingItems",0,49,49,82,NA,NA,NA,NA,NA,NA,NA,NA,NA,NA,41,FALSE,19,60.9261734048,NA,"American English","VSH_Exp2","2016_Mar_23_1803",NA
"Recordings/tuti.wav","no","t","t","u","yes","i","tuti","Training","alveolar","TrainingItems",0,50,50,73,NA,NA,NA,NA,NA,NA,NA,NA,NA,NA,41,FALSE,19,60.9261734048,NA,"American English","VSH_Exp2","2016_Mar_23_1803",NA
"Recordings/sifi.wav","no","s","f","i","no","i","sifi","Training","alveolar","TrainingItems",0,51,51,66,NA,NA,NA,NA,NA,NA,NA,NA,NA,NA,41,FALSE,19,60.9261734048,NA,"American English","VSH_Exp2","2016_Mar_23_1803",NA
"Recordings/sasi.wav","no","s","s","a","no","i","sasi","Training","alveolar","TrainingItems",0,52,52,1,NA,NA,NA,NA,NA,NA,NA,NA,NA,NA,41,FALSE,19,60.9261734048,NA,"American English","VSH_Exp2","2016_Mar_23_1803",NA
"Recordings/fisu.wav","no","f","s","i","no","u","fisu","Training","bilabial","TrainingItems",0,53,53,4,NA,NA,NA,NA,NA,NA,NA,NA,NA,NA,41,FALSE,19,60.9261734048,NA,"American English","VSH_Exp2","2016_Mar_23_1803",NA
"Recordings/pupi.wav","no","p","p","u","yes","i","pupi","Training","bilabial","TrainingItems",0,54,54,8,NA,NA,NA,NA,NA,NA,NA,NA,NA,NA,41,FALSE,19,60.9261734048,NA,"American English","VSH_Exp2","2016_Mar_23_1803",NA
"Recordings/fifa.wav","no","f","f","i","no","a","fifa","Training","bilabial","TrainingItems",0,55,55,45,NA,NA,NA,NA,NA,NA,NA,NA,NA,NA,41,FALSE,19,60.9261734048,NA,"American English","VSH_Exp2","2016_Mar_23_1803",NA
"Recordings/viva.wav","yes","v","v","i","no","a","viva","Training","bilabial","TrainingItems",0,56,56,99,NA,NA,NA,NA,NA,NA,NA,NA,NA,NA,41,FALSE,19,60.9261734048,NA,"American English","VSH_Exp2","2016_Mar_23_1803",NA
"Recordings/biba.wav","yes","b","b","i","yes","a","biba","Training","bilabial","TrainingItems",0,57,57,65,NA,NA,NA,NA,NA,NA,NA,NA,NA,NA,41,FALSE,19,60.9261734048,NA,"American English","VSH_Exp2","2016_Mar_23_1803",NA
"Recordings/fasa.wav","no","f","s","a","no","a","fasa","Training","bilabial","TrainingItems",0,58,58,97,NA,NA,NA,NA,NA,NA,NA,NA,NA,NA,41,FALSE,19,60.9261734048,NA,"American English","VSH_Exp2","2016_Mar_23_1803",NA
"Recordings/pupa.wav","no","p","p","u","yes","a","pupa","Training","bilabial","TrainingItems",0,59,59,74,NA,NA,NA,NA,NA,NA,NA,NA,NA,NA,41,FALSE,19,60.9261734048,NA,"American English","VSH_Exp2","2016_Mar_23_1803",NA
"Recordings/bibu.wav","yes","b","b","i","yes","u","bibu","Training","bilabial","TrainingItems",0,60,60,98,NA,NA,NA,NA,NA,NA,NA,NA,NA,NA,41,FALSE,19,60.9261734048,NA,"American English","VSH_Exp2","2016_Mar_23_1803",NA
"Recordings/bidu.wav","yes","b","d","i","yes","u","bidu","Training","bilabial","TrainingItems",0,61,61,35,NA,NA,NA,NA,NA,NA,NA,NA,NA,NA,41,FALSE,19,60.9261734048,NA,"American English","VSH_Exp2","2016_Mar_23_1803",NA
"Recordings/vuva.wav","yes","v","v","u","no","a","vuva","Training","bilabial","TrainingItems",0,62,62,46,NA,NA,NA,NA,NA,NA,NA,NA,NA,NA,41,FALSE,19,60.9261734048,NA,"American English","VSH_Exp2","2016_Mar_23_1803",NA
"Recordings/fafa.wav","no","f","f","a","no","a","fafa","Training","bilabial","TrainingItems",0,63,63,32,NA,NA,NA,NA,NA,NA,NA,NA,NA,NA,41,FALSE,19,60.9261734048,NA,"American English","VSH_Exp2","2016_Mar_23_1803",NA
"Recordings/ziza.wav","yes","z","z","i","no","a","ziza","Training","alveolar","TrainingItems",0,64,64,19,NA,NA,NA,NA,NA,NA,NA,NA,NA,NA,41,FALSE,19,60.9261734048,NA,"American English","VSH_Exp2","2016_Mar_23_1803",NA
"Recordings/safi.wav","no","s","f","a","no","i","safi","Training","alveolar","TrainingItems",0,65,65,91,NA,NA,NA,NA,NA,NA,NA,NA,NA,NA,41,FALSE,19,60.9261734048,NA,"American English","VSH_Exp2","2016_Mar_23_1803",NA
"Recordings/dubi.wav","yes","d","b","u","yes","i","dubi","Training","alveolar","TrainingItems",0,66,66,20,NA,NA,NA,NA,NA,NA,NA,NA,NA,NA,41,FALSE,19,60.9261734048,NA,"American English","VSH_Exp2","2016_Mar_23_1803",NA
"Recordings/budu.wav","yes","b","d","u","yes","u","budu","Training","bilabial","TrainingItems",0,67,67,11,NA,NA,NA,NA,NA,NA,NA,NA,NA,NA,41,FALSE,19,60.9261734048,NA,"American English","VSH_Exp2","2016_Mar_23_1803",NA
"Recordings/bida.wav","yes","b","d","i","yes","a","bida","Training","bilabial","TrainingItems",0,68,68,37,NA,NA,NA,NA,NA,NA,NA,NA,NA,NA,41,FALSE,19,60.9261734048,NA,"American English","VSH_Exp2","2016_Mar_23_1803",NA
"Recordings/fusa.wav","no","f","s","u","no","a","fusa","Training","bilabial","TrainingItems",0,69,69,69,NA,NA,NA,NA,NA,NA,NA,NA,NA,NA,41,FALSE,19,60.9261734048,NA,"American English","VSH_Exp2","2016_Mar_23_1803",NA
"Recordings/bidi.wav","yes","b","d","i","yes","i","bidi","Training","bilabial","TrainingItems",0,70,70,29,NA,NA,NA,NA,NA,NA,NA,NA,NA,NA,41,FALSE,19,60.9261734048,NA,"American English","VSH_Exp2","2016_Mar_23_1803",NA
"Recordings/fifu.wav","no","f","f","i","no","u","fifu","Training","bilabial","TrainingItems",0,71,71,44,NA,NA,NA,NA,NA,NA,NA,NA,NA,NA,41,FALSE,19,60.9261734048,NA,"American English","VSH_Exp2","2016_Mar_23_1803",NA
"Recordings/vavu.wav","yes","v","v","a","no","u","vavu","Training","bilabial","TrainingItems",0,72,72,6,NA,NA,NA,NA,NA,NA,NA,NA,NA,NA,41,FALSE,19,60.9261734048,NA,"American English","VSH_Exp2","2016_Mar_23_1803",NA
"Recordings/zivu.wav","yes","z","v","i","no","u","zivu","Training","alveolar","TrainingItems",0,73,73,76,NA,NA,NA,NA,NA,NA,NA,NA,NA,NA,41,FALSE,19,60.9261734048,NA,"American English","VSH_Exp2","2016_Mar_23_1803",NA
"Recordings/safa.wav","no","s","f","a","no","a","safa","Training","alveolar","TrainingItems",0,74,74,34,NA,NA,NA,NA,NA,NA,NA,NA,NA,NA,41,FALSE,19,60.9261734048,NA,"American English","VSH_Exp2","2016_Mar_23_1803",NA
"Recordings/safu.wav","no","s","f","a","no","u","safu","Training","alveolar","TrainingItems",0,75,75,26,NA,NA,NA,NA,NA,NA,NA,NA,NA,NA,41,FALSE,19,60.9261734048,NA,"American English","VSH_Exp2","2016_Mar_23_1803",NA
"Recordings/zuvu.wav","yes","z","v","u","no","u","zuvu","Training","alveolar","TrainingItems",0,76,76,78,NA,NA,NA,NA,NA,NA,NA,NA,NA,NA,41,FALSE,19,60.9261734048,NA,"American English","VSH_Exp2","2016_Mar_23_1803",NA
"Recordings/titu.wav","no","t","t","i","yes","u","titu","Training","alveolar","TrainingItems",0,77,77,40,NA,NA,NA,NA,NA,NA,NA,NA,NA,NA,41,FALSE,19,60.9261734048,NA,"American English","VSH_Exp2","2016_Mar_23_1803",NA
"Recordings/fisa.wav","no","f","s","i","no","a","fisa","Training","bilabial","TrainingItems",0,78,78,24,NA,NA,NA,NA,NA,NA,NA,NA,NA,NA,41,FALSE,19,60.9261734048,NA,"American English","VSH_Exp2","2016_Mar_23_1803",NA
"Recordings/baba.wav","yes","b","b","a","yes","a","baba","Training","bilabial","TrainingItems",0,79,79,31,NA,NA,NA,NA,NA,NA,NA,NA,NA,NA,41,FALSE,19,60.9261734048,NA,"American English","VSH_Exp2","2016_Mar_23_1803",NA
"Recordings/dada.wav","yes","d","d","a","yes","a","dada","Training","alveolar","TrainingItems",0,80,80,54,NA,NA,NA,NA,NA,NA,NA,NA,NA,NA,41,FALSE,19,60.9261734048,NA,"American English","VSH_Exp2","2016_Mar_23_1803",NA
"Recordings/ziva.wav","yes","z","v","i","no","a","ziva","Training","alveolar","TrainingItems",0,81,81,92,NA,NA,NA,NA,NA,NA,NA,NA,NA,NA,41,FALSE,19,60.9261734048,NA,"American English","VSH_Exp2","2016_Mar_23_1803",NA
"Recordings/pupu.wav","no","p","p","u","yes","u","pupu","Training","bilabial","TrainingItems",0,82,82,80,NA,NA,NA,NA,NA,NA,NA,NA,NA,NA,41,FALSE,19,60.9261734048,NA,"American English","VSH_Exp2","2016_Mar_23_1803",NA
"Recordings/vivu.wav","yes","v","v","i","no","u","vivu","Training","bilabial","TrainingItems",0,83,83,15,NA,NA,NA,NA,NA,NA,NA,NA,NA,NA,41,FALSE,19,60.9261734048,NA,"American English","VSH_Exp2","2016_Mar_23_1803",NA
"Recordings/dibi.wav","yes","d","b","i","yes","i","dibi","Training","alveolar","TrainingItems",0,84,84,43,NA,NA,NA,NA,NA,NA,NA,NA,NA,NA,41,FALSE,19,60.9261734048,NA,"American English","VSH_Exp2","2016_Mar_23_1803",NA
"Recordings/duda.wav","yes","d","d","u","yes","a","duda","Training","alveolar","TrainingItems",0,85,85,23,NA,NA,NA,NA,NA,NA,NA,NA,NA,NA,41,FALSE,19,60.9261734048,NA,"American English","VSH_Exp2","2016_Mar_23_1803",NA
"Recordings/fafu.wav","no","f","f","a","no","u","fafu","Training","bilabial","TrainingItems",0,86,86,96,NA,NA,NA,NA,NA,NA,NA,NA,NA,NA,41,FALSE,19,60.9261734048,NA,"American English","VSH_Exp2","2016_Mar_23_1803",NA
"Recordings/vuvi.wav","yes","v","v","u","no","i","vuvi","Training","bilabial","TrainingItems",0,87,87,21,NA,NA,NA,NA,NA,NA,NA,NA,NA,NA,41,FALSE,19,60.9261734048,NA,"American English","VSH_Exp2","2016_Mar_23_1803",NA
"Recordings/dudu.wav","yes","d","d","u","yes","u","dudu","Training","alveolar","TrainingItems",0,88,88,88,NA,NA,NA,NA,NA,NA,NA,NA,NA,NA,41,FALSE,19,60.9261734048,NA,"American English","VSH_Exp2","2016_Mar_23_1803",NA
"Recordings/papu.wav","no","p","p","a","yes","u","papu","Training","bilabial","TrainingItems",0,89,89,36,NA,NA,NA,NA,NA,NA,NA,NA,NA,NA,41,FALSE,19,60.9261734048,NA,"American English","VSH_Exp2","2016_Mar_23_1803",NA
"Recordings/sasa.wav","no","s","s","a","no","a","sasa","Training","alveolar","TrainingItems",0,90,90,18,NA,NA,NA,NA,NA,NA,NA,NA,NA,NA,41,FALSE,19,60.9261734048,NA,"American English","VSH_Exp2","2016_Mar_23_1803",NA
"Recordings/zuvi.wav","yes","z","v","u","no","i","zuvi","Training","alveolar","TrainingItems",0,91,91,55,NA,NA,NA,NA,NA,NA,NA,NA,NA,NA,41,FALSE,19,60.9261734048,NA,"American English","VSH_Exp2","2016_Mar_23_1803",NA
"Recordings/vuza.wav","yes","v","z","u","no","a","vuza","Training","bilabial","TrainingItems",0,92,92,51,NA,NA,NA,NA,NA,NA,NA,NA,NA,NA,41,FALSE,19,60.9261734048,NA,"American English","VSH_Exp2","2016_Mar_23_1803",NA
"Recordings/bibi.wav","yes","b","b","i","yes","i","bibi","Training","bilabial","TrainingItems",0,93,93,87,NA,NA,NA,NA,NA,NA,NA,NA,NA,NA,41,FALSE,19,60.9261734048,NA,"American English","VSH_Exp2","2016_Mar_23_1803",NA
"Recordings/tuta.wav","no","t","t","u","yes","a","tuta","Training","alveolar","TrainingItems",0,94,94,16,NA,NA,NA,NA,NA,NA,NA,NA,NA,NA,41,FALSE,19,60.9261734048,NA,"American English","VSH_Exp2","2016_Mar_23_1803",NA
"Recordings/zavu.wav","yes","z","v","a","no","u","zavu","Training","alveolar","TrainingItems",0,95,95,27,NA,NA,NA,NA,NA,NA,NA,NA,NA,NA,41,FALSE,19,60.9261734048,NA,"American English","VSH_Exp2","2016_Mar_23_1803",NA
"Recordings/badi.wav","yes","b","d","a","yes","i","badi","Training","bilabial","TrainingItems",0,96,96,17,NA,NA,NA,NA,NA,NA,NA,NA,NA,NA,41,FALSE,19,60.9261734048,NA,"American English","VSH_Exp2","2016_Mar_23_1803",NA
"Recordings/vaza.wav","yes","v","z","a","no","a","vaza","Training","bilabial","TrainingItems",0,97,97,9,NA,NA,NA,NA,NA,NA,NA,NA,NA,NA,41,FALSE,19,60.9261734048,NA,"American English","VSH_Exp2","2016_Mar_23_1803",NA
"Recordings/zazu.wav","yes","z","z","a","no","u","zazu","Training","alveolar","TrainingItems",0,98,98,64,NA,NA,NA,NA,NA,NA,NA,NA,NA,NA,41,FALSE,19,60.9261734048,NA,"American English","VSH_Exp2","2016_Mar_23_1803",NA
"Recordings/budi.wav","yes","b","d","u","yes","i","budi","Training","bilabial","TrainingItems",0,99,99,3,NA,NA,NA,NA,NA,NA,NA,NA,NA,NA,41,FALSE,19,60.9261734048,NA,"American English","VSH_Exp2","2016_Mar_23_1803",NA
"Recordings/vuza.wav","yes","v","z","u","no","a","vuza","Training","bilabial","TrainingItems",1,0,100,51,NA,NA,NA,NA,NA,NA,NA,NA,NA,NA,41,FALSE,19,60.9261734048,NA,"American English","VSH_Exp2","2016_Mar_23_1803",NA
"Recordings/viva.wav","yes","v","v","i","no","a","viva","Training","bilabial","TrainingItems",1,1,101,99,NA,NA,NA,NA,NA,NA,NA,NA,NA,NA,41,FALSE,19,60.9261734048,NA,"American English","VSH_Exp2","2016_Mar_23_1803",NA
"Recordings/vizi.wav","yes","v","z","i","no","i","vizi","Training","bilabial","TrainingItems",1,2,102,7,NA,NA,NA,NA,NA,NA,NA,NA,NA,NA,41,FALSE,19,60.9261734048,NA,"American English","VSH_Exp2","2016_Mar_23_1803",NA
"Recordings/vivu.wav","yes","v","v","i","no","u","vivu","Training","bilabial","TrainingItems",1,3,103,15,NA,NA,NA,NA,NA,NA,NA,NA,NA,NA,41,FALSE,19,60.9261734048,NA,"American English","VSH_Exp2","2016_Mar_23_1803",NA
"Recordings/dudu.wav","yes","d","d","u","yes","u","dudu","Training","alveolar","TrainingItems",1,4,104,88,NA,NA,NA,NA,NA,NA,NA,NA,NA,NA,41,FALSE,19,60.9261734048,NA,"American English","VSH_Exp2","2016_Mar_23_1803",NA
"Recordings/sufu.wav","no","s","f","u","no","u","sufu","Training","alveolar","TrainingItems",1,5,105,79,NA,NA,NA,NA,NA,NA,NA,NA,NA,NA,41,FALSE,19,60.9261734048,NA,"American English","VSH_Exp2","2016_Mar_23_1803",NA
"Recordings/papa.wav","no","p","p","a","yes","a","papa","Training","bilabial","TrainingItems",1,6,106,61,NA,NA,NA,NA,NA,NA,NA,NA,NA,NA,41,FALSE,19,60.9261734048,NA,"American English","VSH_Exp2","2016_Mar_23_1803",NA
"Recordings/vaza.wav","yes","v","z","a","no","a","vaza","Training","bilabial","TrainingItems",1,7,107,9,NA,NA,NA,NA,NA,NA,NA,NA,NA,NA,41,FALSE,19,60.9261734048,NA,"American English","VSH_Exp2","2016_Mar_23_1803",NA
"Recordings/zuza.wav","yes","z","z","u","no","a","zuza","Training","alveolar","TrainingItems",1,8,108,13,NA,NA,NA,NA,NA,NA,NA,NA,NA,NA,41,FALSE,19,60.9261734048,NA,"American English","VSH_Exp2","2016_Mar_23_1803",NA
"Recordings/sisu.wav","no","s","s","i","no","u","sisu","Training","alveolar","TrainingItems",1,9,109,38,NA,NA,NA,NA,NA,NA,NA,NA,NA,NA,41,FALSE,19,60.9261734048,NA,"American English","VSH_Exp2","2016_Mar_23_1803",NA
"Recordings/zazi.wav","yes","z","z","a","no","i","zazi","Training","alveolar","TrainingItems",1,10,110,94,NA,NA,NA,NA,NA,NA,NA,NA,NA,NA,41,FALSE,19,60.9261734048,NA,"American English","VSH_Exp2","2016_Mar_23_1803",NA
"Recordings/tutu.wav","no","t","t","u","yes","u","tutu","Training","alveolar","TrainingItems",1,11,111,62,NA,NA,NA,NA,NA,NA,NA,NA,NA,NA,41,FALSE,19,60.9261734048,NA,"American English","VSH_Exp2","2016_Mar_23_1803",NA
"Recordings/zavu.wav","yes","z","v","a","no","u","zavu","Training","alveolar","TrainingItems",1,12,112,27,NA,NA,NA,NA,NA,NA,NA,NA,NA,NA,41,FALSE,19,60.9261734048,NA,"American English","VSH_Exp2","2016_Mar_23_1803",NA
"Recordings/vavi.wav","yes","v","v","a","no","i","vavi","Training","bilabial","TrainingItems",1,13,113,59,NA,NA,NA,NA,NA,NA,NA,NA,NA,NA,41,FALSE,19,60.9261734048,NA,"American English","VSH_Exp2","2016_Mar_23_1803",NA
"Recordings/safu.wav","no","s","f","a","no","u","safu","Training","alveolar","TrainingItems",1,14,114,26,NA,NA,NA,NA,NA,NA,NA,NA,NA,NA,41,FALSE,19,60.9261734048,NA,"American English","VSH_Exp2","2016_Mar_23_1803",NA
"Recordings/fifa.wav","no","f","f","i","no","a","fifa","Training","bilabial","TrainingItems",1,15,115,45,NA,NA,NA,NA,NA,NA,NA,NA,NA,NA,41,FALSE,19,60.9261734048,NA,"American English","VSH_Exp2","2016_Mar_23_1803",NA
"Recordings/zaza.wav","yes","z","z","a","no","a","zaza","Training","alveolar","TrainingItems",1,16,116,2,NA,NA,NA,NA,NA,NA,NA,NA,NA,NA,41,FALSE,19,60.9261734048,NA,"American English","VSH_Exp2","2016_Mar_23_1803",NA
"Recordings/bibu.wav","yes","b","b","i","yes","u","bibu","Training","bilabial","TrainingItems",1,17,117,98,NA,NA,NA,NA,NA,NA,NA,NA,NA,NA,41,FALSE,19,60.9261734048,NA,"American English","VSH_Exp2","2016_Mar_23_1803",NA
"Recordings/zizu.wav","yes","z","z","i","no","u","zizu","Training","alveolar","TrainingItems",1,18,118,30,NA,NA,NA,NA,NA,NA,NA,NA,NA,NA,41,FALSE,19,60.9261734048,NA,"American English","VSH_Exp2","2016_Mar_23_1803",NA
"Recordings/vuzu.wav","yes","v","z","u","no","u","vuzu","Training","bilabial","TrainingItems",1,19,119,33,NA,NA,NA,NA,NA,NA,NA,NA,NA,NA,41,FALSE,19,60.9261734048,NA,"American English","VSH_Exp2","2016_Mar_23_1803",NA
"Recordings/susu.wav","no","s","s","u","no","u","susu","Training","alveolar","TrainingItems",1,20,120,53,NA,NA,NA,NA,NA,NA,NA,NA,NA,NA,41,FALSE,19,60.9261734048,NA,"American English","VSH_Exp2","2016_Mar_23_1803",NA
"Recordings/zuvi.wav","yes","z","v","u","no","i","zuvi","Training","alveolar","TrainingItems",1,21,121,55,NA,NA,NA,NA,NA,NA,NA,NA,NA,NA,41,FALSE,19,60.9261734048,NA,"American English","VSH_Exp2","2016_Mar_23_1803",NA
"Recordings/zivu.wav","yes","z","v","i","no","u","zivu","Training","alveolar","TrainingItems",1,22,122,76,NA,NA,NA,NA,NA,NA,NA,NA,NA,NA,41,FALSE,19,60.9261734048,NA,"American English","VSH_Exp2","2016_Mar_23_1803",NA
"Recordings/duda.wav","yes","d","d","u","yes","a","duda","Training","alveolar","TrainingItems",1,23,123,23,NA,NA,NA,NA,NA,NA,NA,NA,NA,NA,41,FALSE,19,60.9261734048,NA,"American English","VSH_Exp2","2016_Mar_23_1803",NA
"Recordings/vuva.wav","yes","v","v","u","no","a","vuva","Training","bilabial","TrainingItems",1,24,124,46,NA,NA,NA,NA,NA,NA,NA,NA,NA,NA,41,FALSE,19,60.9261734048,NA,"American English","VSH_Exp2","2016_Mar_23_1803",NA
"Recordings/bida.wav","yes","b","d","i","yes","a","bida","Training","bilabial","TrainingItems",1,25,125,37,NA,NA,NA,NA,NA,NA,NA,NA,NA,NA,41,FALSE,19,60.9261734048,NA,"American English","VSH_Exp2","2016_Mar_23_1803",NA
"Recordings/fufu.wav","no","f","f","u","no","u","fufu","Training","bilabial","TrainingItems",1,26,126,63,NA,NA,NA,NA,NA,NA,NA,NA,NA,NA,41,FALSE,19,60.9261734048,NA,"American English","VSH_Exp2","2016_Mar_23_1803",NA
"Recordings/vivi.wav","yes","v","v","i","no","i","vivi","Training","bilabial","TrainingItems",1,27,127,47,NA,NA,NA,NA,NA,NA,NA,NA,NA,NA,41,FALSE,19,60.9261734048,NA,"American English","VSH_Exp2","2016_Mar_23_1803",NA
"Recordings/pipu.wav","no","p","p","i","yes","u","pipu","Training","bilabial","TrainingItems",1,28,128,50,NA,NA,NA,NA,NA,NA,NA,NA,NA,NA,41,FALSE,19,60.9261734048,NA,"American English","VSH_Exp2","2016_Mar_23_1803",NA
"Recordings/sasa.wav","no","s","s","a","no","a","sasa","Training","alveolar","TrainingItems",1,29,129,18,NA,NA,NA,NA,NA,NA,NA,NA,NA,NA,41,FALSE,19,60.9261734048,NA,"American English","VSH_Exp2","2016_Mar_23_1803",NA
"Recordings/zavi.wav","yes","z","v","a","no","i","zavi","Training","alveolar","TrainingItems",1,30,130,83,NA,NA,NA,NA,NA,NA,NA,NA,NA,NA,41,FALSE,19,60.9261734048,NA,"American English","VSH_Exp2","2016_Mar_23_1803",NA
"Recordings/tata.wav","no","t","t","a","yes","a","tata","Training","alveolar","TrainingItems",1,31,131,25,NA,NA,NA,NA,NA,NA,NA,NA,NA,NA,41,FALSE,19,60.9261734048,NA,"American English","VSH_Exp2","2016_Mar_23_1803",NA
"Recordings/budu.wav","yes","b","d","u","yes","u","budu","Training","bilabial","TrainingItems",1,32,132,11,NA,NA,NA,NA,NA,NA,NA,NA,NA,NA,41,FALSE,19,60.9261734048,NA,"American English","VSH_Exp2","2016_Mar_23_1803",NA
"Recordings/badu.wav","yes","b","d","a","yes","u","badu","Training","bilabial","TrainingItems",1,33,133,75,NA,NA,NA,NA,NA,NA,NA,NA,NA,NA,41,FALSE,19,60.9261734048,NA,"American English","VSH_Exp2","2016_Mar_23_1803",NA
"Recordings/babi.wav","yes","b","b","a","yes","i","babi","Training","bilabial","TrainingItems",1,34,134,93,NA,NA,NA,NA,NA,NA,NA,NA,NA,NA,41,FALSE,19,60.9261734048,NA,"American English","VSH_Exp2","2016_Mar_23_1803",NA
"Recordings/fifi.wav","no","f","f","i","no","i","fifi","Training","bilabial","TrainingItems",1,35,135,58,NA,NA,NA,NA,NA,NA,NA,NA,NA,NA,41,FALSE,19,60.9261734048,NA,"American English","VSH_Exp2","2016_Mar_23_1803",NA
"Recordings/bada.wav","yes","b","d","a","yes","a","bada","Training","bilabial","TrainingItems",1,36,136,72,NA,NA,NA,NA,NA,NA,NA,NA,NA,NA,41,FALSE,19,60.9261734048,NA,"American English","VSH_Exp2","2016_Mar_23_1803",NA
"Recordings/fafa.wav","no","f","f","a","no","a","fafa","Training","bilabial","TrainingItems",1,37,137,32,NA,NA,NA,NA,NA,NA,NA,NA,NA,NA,41,FALSE,19,60.9261734048,NA,"American English","VSH_Exp2","2016_Mar_23_1803",NA
"Recordings/pupu.wav","no","p","p","u","yes","u","pupu","Training","bilabial","TrainingItems",1,38,138,80,NA,NA,NA,NA,NA,NA,NA,NA,NA,NA,41,FALSE,19,60.9261734048,NA,"American English","VSH_Exp2","2016_Mar_23_1803",NA
"Recordings/dibi.wav","yes","d","b","i","yes","i","dibi","Training","alveolar","TrainingItems",1,39,139,43,NA,NA,NA,NA,NA,NA,NA,NA,NA,NA,41,FALSE,19,60.9261734048,NA,"American English","VSH_Exp2","2016_Mar_23_1803",NA
"Recordings/fifu.wav","no","f","f","i","no","u","fifu","Training","bilabial","TrainingItems",1,40,140,44,NA,NA,NA,NA,NA,NA,NA,NA,NA,NA,41,FALSE,19,60.9261734048,NA,"American English","VSH_Exp2","2016_Mar_23_1803",NA
"Recordings/vuzi.wav","yes","v","z","u","no","i","vuzi","Training","bilabial","TrainingItems",1,41,141,86,NA,NA,NA,NA,NA,NA,NA,NA,NA,NA,41,FALSE,19,60.9261734048,NA,"American English","VSH_Exp2","2016_Mar_23_1803",NA
"Recordings/bidu.wav","yes","b","d","i","yes","u","bidu","Training","bilabial","TrainingItems",1,42,142,35,NA,NA,NA,NA,NA,NA,NA,NA,NA,NA,41,FALSE,19,60.9261734048,NA,"American English","VSH_Exp2","2016_Mar_23_1803",NA
"Recordings/fusa.wav","no","f","s","u","no","a","fusa","Training","bilabial","TrainingItems",1,43,143,69,NA,NA,NA,NA,NA,NA,NA,NA,NA,NA,41,FALSE,19,60.9261734048,NA,"American English","VSH_Exp2","2016_Mar_23_1803",NA
"Recordings/vavu.wav","yes","v","v","a","no","u","vavu","Training","bilabial","TrainingItems",1,44,144,6,NA,NA,NA,NA,NA,NA,NA,NA,NA,NA,41,FALSE,19,60.9261734048,NA,"American English","VSH_Exp2","2016_Mar_23_1803",NA
"Recordings/fasi.wav","no","f","s","a","no","i","fasi","Training","bilabial","TrainingItems",1,45,145,82,NA,NA,NA,NA,NA,NA,NA,NA,NA,NA,41,FALSE,19,60.9261734048,NA,"American English","VSH_Exp2","2016_Mar_23_1803",NA
"Recordings/papi.wav","no","p","p","a","yes","i","papi","Training","bilabial","TrainingItems",1,46,146,67,NA,NA,NA,NA,NA,NA,NA,NA,NA,NA,41,FALSE,19,60.9261734048,NA,"American English","VSH_Exp2","2016_Mar_23_1803",NA
"Recordings/babu.wav","yes","b","b","a","yes","u","babu","Training","bilabial","TrainingItems",1,47,147,68,NA,NA,NA,NA,NA,NA,NA,NA,NA,NA,41,FALSE,19,60.9261734048,NA,"American English","VSH_Exp2","2016_Mar_23_1803",NA
"Recordings/fasa.wav","no","f","s","a","no","a","fasa","Training","bilabial","TrainingItems",1,48,148,97,NA,NA,NA,NA,NA,NA,NA,NA,NA,NA,41,FALSE,19,60.9261734048,NA,"American English","VSH_Exp2","2016_Mar_23_1803",NA
"Recordings/zuvu.wav","yes","z","v","u","no","u","zuvu","Training","alveolar","TrainingItems",1,49,149,78,NA,NA,NA,NA,NA,NA,NA,NA,NA,NA,41,FALSE,19,60.9261734048,NA,"American English","VSH_Exp2","2016_Mar_23_1803",NA
"Recordings/budi.wav","yes","b","d","u","yes","i","budi","Training","bilabial","TrainingItems",1,50,150,3,NA,NA,NA,NA,NA,NA,NA,NA,NA,NA,41,FALSE,19,60.9261734048,NA,"American English","VSH_Exp2","2016_Mar_23_1803",NA
"Recordings/tati.wav","no","t","t","a","yes","i","tati","Training","alveolar","TrainingItems",1,51,151,84,NA,NA,NA,NA,NA,NA,NA,NA,NA,NA,41,FALSE,19,60.9261734048,NA,"American English","VSH_Exp2","2016_Mar_23_1803",NA
"Recordings/tuta.wav","no","t","t","u","yes","a","tuta","Training","alveolar","TrainingItems",1,52,152,16,NA,NA,NA,NA,NA,NA,NA,NA,NA,NA,41,FALSE,19,60.9261734048,NA,"American English","VSH_Exp2","2016_Mar_23_1803",NA
"Recordings/sisa.wav","no","s","s","i","no","a","sisa","Training","alveolar","TrainingItems",1,53,153,22,NA,NA,NA,NA,NA,NA,NA,NA,NA,NA,41,FALSE,19,60.9261734048,NA,"American English","VSH_Exp2","2016_Mar_23_1803",NA
"Recordings/dubi.wav","yes","d","b","u","yes","i","dubi","Training","alveolar","TrainingItems",1,54,154,20,NA,NA,NA,NA,NA,NA,NA,NA,NA,NA,41,FALSE,19,60.9261734048,NA,"American English","VSH_Exp2","2016_Mar_23_1803",NA
"Recordings/didi.wav","yes","d","d","i","yes","i","didi","Training","alveolar","TrainingItems",1,55,155,48,NA,NA,NA,NA,NA,NA,NA,NA,NA,NA,41,FALSE,19,60.9261734048,NA,"American English","VSH_Exp2","2016_Mar_23_1803",NA
"Recordings/dadu.wav","yes","d","d","a","yes","u","dadu","Training","alveolar","TrainingItems",1,56,156,70,NA,NA,NA,NA,NA,NA,NA,NA,NA,NA,41,FALSE,19,60.9261734048,NA,"American English","VSH_Exp2","2016_Mar_23_1803",NA
"Recordings/zuva.wav","yes","z","v","u","no","a","zuva","Training","alveolar","TrainingItems",1,57,157,71,NA,NA,NA,NA,NA,NA,NA,NA,NA,NA,41,FALSE,19,60.9261734048,NA,"American English","VSH_Exp2","2016_Mar_23_1803",NA
"Recordings/susa.wav","no","s","s","u","no","a","susa","Training","alveolar","TrainingItems",1,58,158,56,NA,NA,NA,NA,NA,NA,NA,NA,NA,NA,41,FALSE,19,60.9261734048,NA,"American English","VSH_Exp2","2016_Mar_23_1803",NA
"Recordings/bibi.wav","yes","b","b","i","yes","i","bibi","Training","bilabial","TrainingItems",1,59,159,87,NA,NA,NA,NA,NA,NA,NA,NA,NA,NA,41,FALSE,19,60.9261734048,NA,"American English","VSH_Exp2","2016_Mar_23_1803",NA
"Recordings/pupa.wav","no","p","p","u","yes","a","pupa","Training","bilabial","TrainingItems",1,60,160,74,NA,NA,NA,NA,NA,NA,NA,NA,NA,NA,41,FALSE,19,60.9261734048,NA,"American English","VSH_Exp2","2016_Mar_23_1803",NA
"Recordings/vava.wav","yes","v","v","a","no","a","vava","Training","bilabial","TrainingItems",1,61,161,39,NA,NA,NA,NA,NA,NA,NA,NA,NA,NA,41,FALSE,19,60.9261734048,NA,"American English","VSH_Exp2","2016_Mar_23_1803",NA
"Recordings/bidi.wav","yes","b","d","i","yes","i","bidi","Training","bilabial","TrainingItems",1,62,162,29,NA,NA,NA,NA,NA,NA,NA,NA,NA,NA,41,FALSE,19,60.9261734048,NA,"American English","VSH_Exp2","2016_Mar_23_1803",NA
"Recordings/dabi.wav","yes","d","b","a","yes","i","dabi","Training","alveolar","TrainingItems",1,63,163,12,NA,NA,NA,NA,NA,NA,NA,NA,NA,NA,41,FALSE,19,60.9261734048,NA,"American English","VSH_Exp2","2016_Mar_23_1803",NA
"Recordings/ziva.wav","yes","z","v","i","no","a","ziva","Training","alveolar","TrainingItems",1,64,164,92,NA,NA,NA,NA,NA,NA,NA,NA,NA,NA,41,FALSE,19,60.9261734048,NA,"American English","VSH_Exp2","2016_Mar_23_1803",NA
"Recordings/fusi.wav","no","f","s","u","no","i","fusi","Training","bilabial","TrainingItems",1,65,165,77,NA,NA,NA,NA,NA,NA,NA,NA,NA,NA,41,FALSE,19,60.9261734048,NA,"American English","VSH_Exp2","2016_Mar_23_1803",NA
"Recordings/tuti.wav","no","t","t","u","yes","i","tuti","Training","alveolar","TrainingItems",1,66,166,73,NA,NA,NA,NA,NA,NA,NA,NA,NA,NA,41,FALSE,19,60.9261734048,NA,"American English","VSH_Exp2","2016_Mar_23_1803",NA
"Recordings/fufi.wav","no","f","f","u","no","i","fufi","Training","bilabial","TrainingItems",1,67,167,95,NA,NA,NA,NA,NA,NA,NA,NA,NA,NA,41,FALSE,19,60.9261734048,NA,"American English","VSH_Exp2","2016_Mar_23_1803",NA
"Recordings/duba.wav","yes","d","b","u","yes","a","duba","Training","alveolar","TrainingItems",1,68,168,90,NA,NA,NA,NA,NA,NA,NA,NA,NA,NA,41,FALSE,19,60.9261734048,NA,"American English","VSH_Exp2","2016_Mar_23_1803",NA
"Recordings/sasu.wav","no","s","s","a","no","u","sasu","Training","alveolar","TrainingItems",1,69,169,89,NA,NA,NA,NA,NA,NA,NA,NA,NA,NA,41,FALSE,19,60.9261734048,NA,"American English","VSH_Exp2","2016_Mar_23_1803",NA
"Recordings/sasi.wav","no","s","s","a","no","i","sasi","Training","alveolar","TrainingItems",1,70,170,1,NA,NA,NA,NA,NA,NA,NA,NA,NA,NA,41,FALSE,19,60.9261734048,NA,"American English","VSH_Exp2","2016_Mar_23_1803",NA
"Recordings/buba.wav","yes","b","b","u","yes","a","buba","Training","bilabial","TrainingItems",1,71,171,85,NA,NA,NA,NA,NA,NA,NA,NA,NA,NA,41,FALSE,19,60.9261734048,NA,"American English","VSH_Exp2","2016_Mar_23_1803",NA
"Recordings/pupi.wav","no","p","p","u","yes","i","pupi","Training","bilabial","TrainingItems",1,72,172,8,NA,NA,NA,NA,NA,NA,NA,NA,NA,NA,41,FALSE,19,60.9261734048,NA,"American English","VSH_Exp2","2016_Mar_23_1803",NA
"Recordings/safi.wav","no","s","f","a","no","i","safi","Training","alveolar","TrainingItems",1,73,173,91,NA,NA,NA,NA,NA,NA,NA,NA,NA,NA,41,FALSE,19,60.9261734048,NA,"American English","VSH_Exp2","2016_Mar_23_1803",NA
"Recordings/titu.wav","no","t","t","i","yes","u","titu","Training","alveolar","TrainingItems",1,74,174,40,NA,NA,NA,NA,NA,NA,NA,NA,NA,NA,41,FALSE,19,60.9261734048,NA,"American English","VSH_Exp2","2016_Mar_23_1803",NA
"Recordings/sufa.wav","no","s","f","u","no","a","sufa","Training","alveolar","TrainingItems",1,75,175,42,NA,NA,NA,NA,NA,NA,NA,NA,NA,NA,41,FALSE,19,60.9261734048,NA,"American English","VSH_Exp2","2016_Mar_23_1803",NA
"Recordings/sifi.wav","no","s","f","i","no","i","sifi","Training","alveolar","TrainingItems",1,76,176,66,NA,NA,NA,NA,NA,NA,NA,NA,NA,NA,41,FALSE,19,60.9261734048,NA,"American English","VSH_Exp2","2016_Mar_23_1803",NA
"Recordings/safa.wav","no","s","f","a","no","a","safa","Training","alveolar","TrainingItems",1,77,177,34,NA,NA,NA,NA,NA,NA,NA,NA,NA,NA,41,FALSE,19,60.9261734048,NA,"American English","VSH_Exp2","2016_Mar_23_1803",NA
"Recordings/titi.wav","no","t","t","i","yes","i","titi","Training","alveolar","TrainingItems",1,78,178,81,NA,NA,NA,NA,NA,NA,NA,NA,NA,NA,41,FALSE,19,60.9261734048,NA,"American English","VSH_Exp2","2016_Mar_23_1803",NA
"Recordings/biba.wav","yes","b","b","i","yes","a","biba","Training","bilabial","TrainingItems",1,79,179,65,NA,NA,NA,NA,NA,NA,NA,NA,NA,NA,41,FALSE,19,60.9261734048,NA,"American English","VSH_Exp2","2016_Mar_23_1803",NA
"Recordings/pipa.wav","no","p","p","i","yes","a","pipa","Training","bilabial","TrainingItems",1,80,180,60,NA,NA,NA,NA,NA,NA,NA,NA,NA,NA,41,FALSE,19,60.9261734048,NA,"American English","VSH_Exp2","2016_Mar_23_1803",NA
"Recordings/fisu.wav","no","f","s","i","no","u","fisu","Training","bilabial","TrainingItems",1,81,181,4,NA,NA,NA,NA,NA,NA,NA,NA,NA,NA,41,FALSE,19,60.9261734048,NA,"American English","VSH_Exp2","2016_Mar_23_1803",NA
"Recordings/baba.wav","yes","b","b","a","yes","a","baba","Training","bilabial","TrainingItems",1,82,182,31,NA,NA,NA,NA,NA,NA,NA,NA,NA,NA,41,FALSE,19,60.9261734048,NA,"American English","VSH_Exp2","2016_Mar_23_1803",NA
"Recordings/zazu.wav","yes","z","z","a","no","u","zazu","Training","alveolar","TrainingItems",1,83,183,64,NA,NA,NA,NA,NA,NA,NA,NA,NA,NA,41,FALSE,19,60.9261734048,NA,"American English","VSH_Exp2","2016_Mar_23_1803",NA
"Recordings/sifa.wav","no","s","f","i","no","a","sifa","Training","alveolar","TrainingItems",1,84,184,49,NA,NA,NA,NA,NA,NA,NA,NA,NA,NA,41,FALSE,19,60.9261734048,NA,"American English","VSH_Exp2","2016_Mar_23_1803",NA
"Recordings/dibu.wav","yes","d","b","i","yes","u","dibu","Training","alveolar","TrainingItems",1,85,185,28,NA,NA,NA,NA,NA,NA,NA,NA,NA,NA,41,FALSE,19,60.9261734048,NA,"American English","VSH_Exp2","2016_Mar_23_1803",NA
"Recordings/papu.wav","no","p","p","a","yes","u","papu","Training","bilabial","TrainingItems",1,86,186,36,NA,NA,NA,NA,NA,NA,NA,NA,NA,NA,41,FALSE,19,60.9261734048,NA,"American English","VSH_Exp2","2016_Mar_23_1803",NA
"Recordings/ziza.wav","yes","z","z","i","no","a","ziza","Training","alveolar","TrainingItems",1,87,187,19,NA,NA,NA,NA,NA,NA,NA,NA,NA,NA,41,FALSE,19,60.9261734048,NA,"American English","VSH_Exp2","2016_Mar_23_1803",NA
"Recordings/dubu.wav","yes","d","b","u","yes","u","dubu","Training","alveolar","TrainingItems",1,88,188,14,NA,NA,NA,NA,NA,NA,NA,NA,NA,NA,41,FALSE,19,60.9261734048,NA,"American English","VSH_Exp2","2016_Mar_23_1803",NA
"Recordings/dudi.wav","yes","d","d","u","yes","i","dudi","Training","alveolar","TrainingItems",1,89,189,0,NA,NA,NA,NA,NA,NA,NA,NA,NA,NA,41,FALSE,19,60.9261734048,NA,"American English","VSH_Exp2","2016_Mar_23_1803",NA
"Recordings/dida.wav","yes","d","d","i","yes","a","dida","Training","alveolar","TrainingItems",1,90,190,57,NA,NA,NA,NA,NA,NA,NA,NA,NA,NA,41,FALSE,19,60.9261734048,NA,"American English","VSH_Exp2","2016_Mar_23_1803",NA
"Recordings/badi.wav","yes","b","d","a","yes","i","badi","Training","bilabial","TrainingItems",1,91,191,17,NA,NA,NA,NA,NA,NA,NA,NA,NA,NA,41,FALSE,19,60.9261734048,NA,"American English","VSH_Exp2","2016_Mar_23_1803",NA
"Recordings/fisa.wav","no","f","s","i","no","a","fisa","Training","bilabial","TrainingItems",1,92,192,24,NA,NA,NA,NA,NA,NA,NA,NA,NA,NA,41,FALSE,19,60.9261734048,NA,"American English","VSH_Exp2","2016_Mar_23_1803",NA
"Recordings/vuvi.wav","yes","v","v","u","no","i","vuvi","Training","bilabial","TrainingItems",1,93,193,21,NA,NA,NA,NA,NA,NA,NA,NA,NA,NA,41,FALSE,19,60.9261734048,NA,"American English","VSH_Exp2","2016_Mar_23_1803",NA
"Recordings/dada.wav","yes","d","d","a","yes","a","dada","Training","alveolar","TrainingItems",1,94,194,54,NA,NA,NA,NA,NA,NA,NA,NA,NA,NA,41,FALSE,19,60.9261734048,NA,"American English","VSH_Exp2","2016_Mar_23_1803",NA
"Recordings/fasu.wav","no","f","s","a","no","u","fasu","Training","bilabial","TrainingItems",1,95,195,10,NA,NA,NA,NA,NA,NA,NA,NA,NA,NA,41,FALSE,19,60.9261734048,NA,"American English","VSH_Exp2","2016_Mar_23_1803",NA
"Recordings/vizu.wav","yes","v","z","i","no","u","vizu","Training","bilabial","TrainingItems",1,96,196,41,NA,NA,NA,NA,NA,NA,NA,NA,NA,NA,41,FALSE,19,60.9261734048,NA,"American English","VSH_Exp2","2016_Mar_23_1803",NA
"Recordings/bubu.wav","yes","b","b","u","yes","u","bubu","Training","bilabial","TrainingItems",1,97,197,5,NA,NA,NA,NA,NA,NA,NA,NA,NA,NA,41,FALSE,19,60.9261734048,NA,"American English","VSH_Exp2","2016_Mar_23_1803",NA
"Recordings/fafu.wav","no","f","f","a","no","u","fafu","Training","bilabial","TrainingItems",1,98,198,96,NA,NA,NA,NA,NA,NA,NA,NA,NA,NA,41,FALSE,19,60.9261734048,NA,"American English","VSH_Exp2","2016_Mar_23_1803",NA
"Recordings/sufi.wav","no","s","f","u","no","i","sufi","Training","alveolar","TrainingItems",1,99,199,52,NA,NA,NA,NA,NA,NA,NA,NA,NA,NA,41,FALSE,19,60.9261734048,NA,"American English","VSH_Exp2","2016_Mar_23_1803",NA
NA,NA,NA,NA,NA,NA,NA,NA,NA,NA,NA,NA,NA,NA,NA,NA,NA,NA,NA,NA,NA,"space",2.8032541275,NA,NA,41,FALSE,19,60.9261734048,NA,"American English","VSH_Exp2","2016_Mar_23_1803",NA
"Recordings/tuti.wav","no","t","t","u","yes","i","tuti","Test","alveolar","OldTestStimuli",NA,NA,NA,NA,0,0,0,9,NA,NA,NA,NA,"Yes",8.913,41,FALSE,19,60.9261734048,NA,"American English","VSH_Exp2","2016_Mar_23_1803",NA
"Recordings/vufa.wav","yes","v","f","u","no","a","vufa","Controls","bilabial","StopControls",NA,NA,NA,NA,0,1,1,37,NA,NA,NA,NA,"No",2.606,41,FALSE,19,60.9261734048,NA,"American English","VSH_Exp2","2016_Mar_23_1803",NA
"Recordings/zipi.wav","yes","z","p","i","no","i","zipi","Controls","alveolar","NoPatternControls",NA,NA,NA,NA,0,2,2,52,NA,NA,NA,NA,"No",5.042,41,FALSE,19,60.9261734048,NA,"American English","VSH_Exp2","2016_Mar_23_1803",NA
"Recordings/pupu.wav","no","p","p","u","yes","u","pupu","Test","bilabial","OldTestStimuli",NA,NA,NA,NA,0,3,3,6,NA,NA,NA,NA,"Yes",1.471,41,FALSE,19,60.9261734048,NA,"American English","VSH_Exp2","2016_Mar_23_1803",NA
"Recordings/vuba.wav","yes","v","b","u","no","a","vuba","Controls","bilabial","VoicingControls",NA,NA,NA,NA,0,4,4,47,NA,NA,NA,NA,"No",3.19,41,FALSE,19,60.9261734048,NA,"American English","VSH_Exp2","2016_Mar_23_1803",NA
"Recordings/piti.wav","no","p","t","i","yes","i","piti","Test","bilabial","NewConsTestStimuli",NA,NA,NA,NA,0,5,5,14,NA,NA,NA,NA,"No",2.256,41,FALSE,19,60.9261734048,NA,"American English","VSH_Exp2","2016_Mar_23_1803",NA
"Recordings/zabi.wav","yes","z","b","a","no","i","zabi","Controls","alveolar","VoicingControls",NA,NA,NA,NA,0,6,6,42,NA,NA,NA,NA,"Yes",1.336,41,FALSE,19,60.9261734048,NA,"American English","VSH_Exp2","2016_Mar_23_1803",NA
"Recordings/fazi.wav","no","f","z","a","no","i","fazi","Controls","bilabial","StopControls",NA,NA,NA,NA,0,7,7,34,NA,NA,NA,NA,"Yes",0.87,41,FALSE,19,60.9261734048,NA,"American English","VSH_Exp2","2016_Mar_23_1803",NA
"Recordings/tipu.wav","no","t","p","i","yes","u","tipu","Test","alveolar","NewConsTestStimuli",NA,NA,NA,NA,0,8,8,12,NA,NA,NA,NA,"Yes",1.52,41,FALSE,19,60.9261734048,NA,"American English","VSH_Exp2","2016_Mar_23_1803",NA
"Recordings/zivu.wav","yes","z","v","i","no","u","zivu","Test","alveolar","OldTestStimuli",NA,NA,NA,NA,0,9,9,7,NA,NA,NA,NA,"No",2.088,41,FALSE,19,60.9261734048,NA,"American English","VSH_Exp2","2016_Mar_23_1803",NA
"Recordings/difu.wav","yes","d","f","i","yes","u","difu","Controls","alveolar","NoPatternControls",NA,NA,NA,NA,0,10,10,55,NA,NA,NA,NA,"No",1.421,41,FALSE,19,60.9261734048,NA,"American English","VSH_Exp2","2016_Mar_23_1803",NA
"Recordings/vapa.wav","yes","v","p","a","no","a","vapa","Controls","bilabial","NoPatternControls",NA,NA,NA,NA,0,11,11,56,NA,NA,NA,NA,"No",3.657,41,FALSE,19,60.9261734048,NA,"American English","VSH_Exp2","2016_Mar_23_1803",NA
"Recordings/sabu.wav","no","s","b","a","no","u","sabu","Controls","alveolar","NoPatternControls",NA,NA,NA,NA,0,12,12,51,NA,NA,NA,NA,"Yes",2.455,41,FALSE,19,60.9261734048,NA,"American English","VSH_Exp2","2016_Mar_23_1803",NA
"Recordings/vuti.wav","yes","v","t","u","no","i","vuti","Controls","bilabial","NoPatternControls",NA,NA,NA,NA,0,13,13,57,NA,NA,NA,NA,"Yes",1.304,41,FALSE,19,60.9261734048,NA,"American English","VSH_Exp2","2016_Mar_23_1803",NA
"Recordings/fafi.wav","no","f","f","a","no","i","fafi","Test","bilabial","NewWordTestStimuli",NA,NA,NA,NA,0,14,14,28,NA,NA,NA,NA,"Yes",0.969,41,FALSE,19,60.9261734048,NA,"American English","VSH_Exp2","2016_Mar_23_1803",NA
"Recordings/dudu.wav","yes","d","d","u","yes","u","dudu","Test","alveolar","OldTestStimuli",NA,NA,NA,NA,0,15,15,2,NA,NA,NA,NA,"Yes",0.92,41,FALSE,19,60.9261734048,NA,"American English","VSH_Exp2","2016_Mar_23_1803",NA
"Recordings/tapu.wav","no","t","p","a","yes","u","tapu","Test","alveolar","NewConsTestStimuli",NA,NA,NA,NA,0,16,16,17,NA,NA,NA,NA,"No",2.957,41,FALSE,19,60.9261734048,NA,"American English","VSH_Exp2","2016_Mar_23_1803",NA
"Recordings/patu.wav","no","p","t","a","yes","u","patu","Test","bilabial","NewConsTestStimuli",NA,NA,NA,NA,0,17,17,10,NA,NA,NA,NA,"No",1.437,41,FALSE,19,60.9261734048,NA,"American English","VSH_Exp2","2016_Mar_23_1803",NA
"Recordings/dadi.wav","yes","d","d","a","yes","i","dadi","Test","alveolar","NewWordTestStimuli",NA,NA,NA,NA,0,18,18,20,NA,NA,NA,NA,"Yes",1.303,41,FALSE,19,60.9261734048,NA,"American English","VSH_Exp2","2016_Mar_23_1803",NA
"Recordings/fuda.wav","no","f","d","u","no","a","fuda","Controls","bilabial","NoPatternControls",NA,NA,NA,NA,0,19,19,54,NA,NA,NA,NA,"No",2.672,41,FALSE,19,60.9261734048,NA,"American English","VSH_Exp2","2016_Mar_23_1803",NA
"Recordings/vazu.wav","yes","v","z","a","no","u","vazu","Test","bilabial","NewWordTestStimuli",NA,NA,NA,NA,0,20,20,26,NA,NA,NA,NA,"Yes",1.22,41,FALSE,19,60.9261734048,NA,"American English","VSH_Exp2","2016_Mar_23_1803",NA
"Recordings/tipa.wav","no","t","p","i","yes","a","tipa","Test","alveolar","NewConsTestStimuli",NA,NA,NA,NA,0,21,21,13,NA,NA,NA,NA,"Yes",0.953,41,FALSE,19,60.9261734048,NA,"American English","VSH_Exp2","2016_Mar_23_1803",NA
"Recordings/zizu.wav","yes","z","z","i","no","u","zizu","Test","alveolar","OldTestStimuli",NA,NA,NA,NA,0,22,22,4,NA,NA,NA,NA,"Yes",1.035,41,FALSE,19,60.9261734048,NA,"American English","VSH_Exp2","2016_Mar_23_1803",NA
"Recordings/pitu.wav","no","p","t","i","yes","u","pitu","Test","bilabial","NewConsTestStimuli",NA,NA,NA,NA,0,23,23,18,NA,NA,NA,NA,"No",1.354,41,FALSE,19,60.9261734048,NA,"American English","VSH_Exp2","2016_Mar_23_1803",NA
"Recordings/viba.wav","yes","v","b","i","no","a","viba","Controls","bilabial","VoicingControls",NA,NA,NA,NA,0,24,24,49,NA,NA,NA,NA,"No",1.821,41,FALSE,19,60.9261734048,NA,"American English","VSH_Exp2","2016_Mar_23_1803",NA
"Recordings/puta.wav","no","p","t","u","yes","a","puta","Test","bilabial","NewConsTestStimuli",NA,NA,NA,NA,0,25,25,19,NA,NA,NA,NA,"No",1.452,41,FALSE,19,60.9261734048,NA,"American English","VSH_Exp2","2016_Mar_23_1803",NA
"Recordings/sisi.wav","no","s","s","i","no","i","sisi","Test","alveolar","NewWordTestStimuli",NA,NA,NA,NA,0,26,26,21,NA,NA,NA,NA,"Yes",1.687,41,FALSE,19,60.9261734048,NA,"American English","VSH_Exp2","2016_Mar_23_1803",NA
"Recordings/vivu.wav","yes","v","v","i","no","u","vivu","Test","bilabial","OldTestStimuli",NA,NA,NA,NA,0,27,27,0,NA,NA,NA,NA,"Yes",1.22,41,FALSE,19,60.9261734048,NA,"American English","VSH_Exp2","2016_Mar_23_1803",NA
"Recordings/zuza.wav","yes","z","z","u","no","a","zuza","Test","alveolar","OldTestStimuli",NA,NA,NA,NA,0,28,28,3,NA,NA,NA,NA,"Yes",0.77,41,FALSE,19,60.9261734048,NA,"American English","VSH_Exp2","2016_Mar_23_1803",NA
"Recordings/vati.wav","yes","v","t","a","no","i","vati","Controls","bilabial","NoPatternControls",NA,NA,NA,NA,0,29,29,59,NA,NA,NA,NA,"No",3.79,41,FALSE,19,60.9261734048,NA,"American English","VSH_Exp2","2016_Mar_23_1803",NA
"Recordings/diva.wav","yes","d","v","i","yes","a","diva","Controls","alveolar","VoicingControls",NA,NA,NA,NA,0,30,30,43,NA,NA,NA,NA,"No",1.703,41,FALSE,19,60.9261734048,NA,"American English","VSH_Exp2","2016_Mar_23_1803",NA
"Recordings/pasu.wav","no","p","s","a","yes","u","pasu","Controls","bilabial","VoicingControls",NA,NA,NA,NA,0,31,31,48,NA,NA,NA,NA,"Yes",2.506,41,FALSE,19,60.9261734048,NA,"American English","VSH_Exp2","2016_Mar_23_1803",NA
"Recordings/padu.wav","no","p","d","a","yes","u","padu","Controls","bilabial","StopControls",NA,NA,NA,NA,0,32,32,38,NA,NA,NA,NA,"Yes",1.204,41,FALSE,19,60.9261734048,NA,"American English","VSH_Exp2","2016_Mar_23_1803",NA
"Recordings/sifu.wav","no","s","f","i","no","u","sifu","Test","alveolar","NewWordTestStimuli",NA,NA,NA,NA,0,33,33,29,NA,NA,NA,NA,"Yes",1.855,41,FALSE,19,60.9261734048,NA,"American English","VSH_Exp2","2016_Mar_23_1803",NA
"Recordings/dipu.wav","yes","d","p","i","yes","u","dipu","Controls","alveolar","StopControls",NA,NA,NA,NA,0,34,34,35,NA,NA,NA,NA,"Yes",3.956,41,FALSE,19,60.9261734048,NA,"American English","VSH_Exp2","2016_Mar_23_1803",NA
"Recordings/disu.wav","yes","d","s","i","yes","u","disu","Controls","alveolar","NoPatternControls",NA,NA,NA,NA,0,35,35,53,NA,NA,NA,NA,"No",1.804,41,FALSE,19,60.9261734048,NA,"American English","VSH_Exp2","2016_Mar_23_1803",NA
"Recordings/susa.wav","no","s","s","u","no","a","susa","Test","alveolar","OldTestStimuli",NA,NA,NA,NA,0,36,36,1,NA,NA,NA,NA,"Yes",1.504,41,FALSE,19,60.9261734048,NA,"American English","VSH_Exp2","2016_Mar_23_1803",NA
"Recordings/vusu.wav","yes","v","s","u","no","u","vusu","Controls","bilabial","StopControls",NA,NA,NA,NA,0,37,37,36,NA,NA,NA,NA,"No",3.208,41,FALSE,19,60.9261734048,NA,"American English","VSH_Exp2","2016_Mar_23_1803",NA
"Recordings/dusi.wav","yes","d","s","u","yes","i","dusi","Controls","alveolar","NoPatternControls",NA,NA,NA,NA,0,38,38,50,NA,NA,NA,NA,"No",1.354,41,FALSE,19,60.9261734048,NA,"American English","VSH_Exp2","2016_Mar_23_1803",NA
"Recordings/vifa.wav","yes","v","f","i","no","a","vifa","Controls","bilabial","StopControls",NA,NA,NA,NA,0,39,39,39,NA,NA,NA,NA,"Yes",1.487,41,FALSE,19,60.9261734048,NA,"American English","VSH_Exp2","2016_Mar_23_1803",NA
"Recordings/zafi.wav","yes","z","f","a","no","i","zafi","Controls","alveolar","StopControls",NA,NA,NA,NA,0,40,40,32,NA,NA,NA,NA,"Yes",1.987,41,FALSE,19,60.9261734048,NA,"American English","VSH_Exp2","2016_Mar_23_1803",NA
"Recordings/didi.wav","yes","d","d","i","yes","i","didi","Test","alveolar","OldTestStimuli",NA,NA,NA,NA,0,41,41,8,NA,NA,NA,NA,"Yes",0.785,41,FALSE,19,60.9261734048,NA,"American English","VSH_Exp2","2016_Mar_23_1803",NA
"Recordings/vudu.wav","yes","v","d","u","no","u","vudu","Controls","bilabial","VoicingControls",NA,NA,NA,NA,0,42,42,46,NA,NA,NA,NA,"Yes",0.787,41,FALSE,19,60.9261734048,NA,"American English","VSH_Exp2","2016_Mar_23_1803",NA
"Recordings/puza.wav","no","p","z","u","yes","a","puza","Controls","bilabial","NoPatternControls",NA,NA,NA,NA,0,43,43,58,NA,NA,NA,NA,"No",1.904,41,FALSE,19,60.9261734048,NA,"American English","VSH_Exp2","2016_Mar_23_1803",NA
"Recordings/zava.wav","yes","z","v","a","no","a","zava","Test","alveolar","NewWordTestStimuli",NA,NA,NA,NA,0,44,44,22,NA,NA,NA,NA,"Yes",6.526,41,FALSE,19,60.9261734048,NA,"American English","VSH_Exp2","2016_Mar_23_1803",NA
"Recordings/pati.wav","no","p","t","a","yes","i","pati","Test","bilabial","NewConsTestStimuli",NA,NA,NA,NA,0,45,45,15,NA,NA,NA,NA,"Yes",2.138,41,FALSE,19,60.9261734048,NA,"American English","VSH_Exp2","2016_Mar_23_1803",NA
"Recordings/tupa.wav","no","t","p","u","yes","a","tupa","Test","alveolar","NewConsTestStimuli",NA,NA,NA,NA,0,46,46,11,NA,NA,NA,NA,"No",1.587,41,FALSE,19,60.9261734048,NA,"American English","VSH_Exp2","2016_Mar_23_1803",NA
"Recordings/tupi.wav","no","t","p","u","yes","i","tupi","Test","alveolar","NewConsTestStimuli",NA,NA,NA,NA,0,47,47,16,NA,NA,NA,NA,"Yes",2.989,41,FALSE,19,60.9261734048,NA,"American English","VSH_Exp2","2016_Mar_23_1803",NA
"Recordings/diti.wav","yes","d","t","i","yes","i","diti","Controls","alveolar","StopControls",NA,NA,NA,NA,0,48,48,30,NA,NA,NA,NA,"Yes",1.905,41,FALSE,19,60.9261734048,NA,"American English","VSH_Exp2","2016_Mar_23_1803",NA
"Recordings/fipa.wav","no","f","p","i","no","a","fipa","Controls","bilabial","VoicingControls",NA,NA,NA,NA,0,49,49,44,NA,NA,NA,NA,"No",3.023,41,FALSE,19,60.9261734048,NA,"American English","VSH_Exp2","2016_Mar_23_1803",NA
"Recordings/dizi.wav","yes","d","z","i","yes","i","dizi","Controls","alveolar","VoicingControls",NA,NA,NA,NA,0,50,50,40,NA,NA,NA,NA,"Yes",1.288,41,FALSE,19,60.9261734048,NA,"American English","VSH_Exp2","2016_Mar_23_1803",NA
"Recordings/dabi.wav","yes","d","b","a","yes","i","dabi","Test","alveolar","OldTestStimuli",NA,NA,NA,NA,0,51,51,5,NA,NA,NA,NA,"Yes",2.122,41,FALSE,19,60.9261734048,NA,"American English","VSH_Exp2","2016_Mar_23_1803",NA
"Recordings/didu.wav","yes","d","d","i","yes","u","didu","Test","alveolar","NewWordTestStimuli",NA,NA,NA,NA,0,52,52,24,NA,NA,NA,NA,"Yes",0.919,41,FALSE,19,60.9261734048,NA,"American English","VSH_Exp2","2016_Mar_23_1803",NA
"Recordings/satu.wav","no","s","t","a","no","u","satu","Controls","alveolar","VoicingControls",NA,NA,NA,NA,0,53,53,41,NA,NA,NA,NA,"Yes",3.991,41,FALSE,19,60.9261734048,NA,"American English","VSH_Exp2","2016_Mar_23_1803",NA
"Recordings/dabu.wav","yes","d","b","a","yes","u","dabu","Test","alveolar","NewWordTestStimuli",NA,NA,NA,NA,0,54,54,25,NA,NA,NA,NA,"No",1.688,41,FALSE,19,60.9261734048,NA,"American English","VSH_Exp2","2016_Mar_23_1803",NA
"Recordings/sazi.wav","no","s","z","a","no","i","sazi","Controls","alveolar","StopControls",NA,NA,NA,NA,0,55,55,31,NA,NA,NA,NA,"No",6.825,41,FALSE,19,60.9261734048,NA,"American English","VSH_Exp2","2016_Mar_23_1803",NA
"Recordings/divu.wav","yes","d","v","i","yes","u","divu","Controls","alveolar","VoicingControls",NA,NA,NA,NA,0,56,56,45,NA,NA,NA,NA,"Yes",1.704,41,FALSE,19,60.9261734048,NA,"American English","VSH_Exp2","2016_Mar_23_1803",NA
"Recordings/dipa.wav","yes","d","p","i","yes","a","dipa","Controls","alveolar","StopControls",NA,NA,NA,NA,0,57,57,33,NA,NA,NA,NA,"No",2.988,41,FALSE,19,60.9261734048,NA,"American English","VSH_Exp2","2016_Mar_23_1803",NA
"Recordings/zuzu.wav","yes","z","z","u","no","u","zuzu","Test","alveolar","NewWordTestStimuli",NA,NA,NA,NA,0,58,58,23,NA,NA,NA,NA,"Yes",1.588,41,FALSE,19,60.9261734048,NA,"American English","VSH_Exp2","2016_Mar_23_1803",NA
"Recordings/tita.wav","no","t","t","i","yes","a","tita","Test","alveolar","NewWordTestStimuli",NA,NA,NA,NA,0,59,59,27,NA,NA,NA,NA,"Yes",0.936,41,FALSE,19,60.9261734048,NA,"American English","VSH_Exp2","2016_Mar_23_1803",NA
