"SOUND","VOICING","SEGMENT","SEGMENT3","SEGMENT2","STOP","SEGMENT4","STIMULUS","GENERAL_TYPE","PLACE","TYPE","trials.thisRepN","trials.thisTrialN","trials.thisN","trials.thisIndex","trials_2.thisRepN","trials_2.thisTrialN","trials_2.thisN","trials_2.thisIndex","SpaceBar.keys","SpaceBar.rt","key_resp_2.keys","key_resp_2.rt","rating.response","rating.rt","participant","Gender","Age","frameRate","OtherLanguages","NativeLanguage","expName","date","X34"
NA,NA,NA,NA,NA,NA,NA,NA,NA,NA,NA,NA,NA,NA,NA,NA,NA,NA,NA,"space",5.7414958477,NA,NA,NA,NA,43,FALSE,19,60.897689424,NA,"American English","VSH_Exp2","2016_Mar_23_1803",NA
"Recordings/didu.wav","yes","d","d","i","yes","u","didu","Training","alveolar","TrainingItems",0,0,0,46,NA,NA,NA,NA,NA,NA,NA,NA,NA,NA,43,FALSE,19,60.897689424,NA,"American English","VSH_Exp2","2016_Mar_23_1803",NA
"Recordings/fufi.wav","no","f","f","u","no","i","fufi","Training","bilabial","TrainingItems",0,1,1,47,NA,NA,NA,NA,NA,NA,NA,NA,NA,NA,43,FALSE,19,60.897689424,NA,"American English","VSH_Exp2","2016_Mar_23_1803",NA
"Recordings/pipa.wav","no","p","p","i","yes","a","pipa","Training","bilabial","TrainingItems",0,2,2,31,NA,NA,NA,NA,NA,NA,NA,NA,NA,NA,43,FALSE,19,60.897689424,NA,"American English","VSH_Exp2","2016_Mar_23_1803",NA
"Recordings/ziva.wav","yes","z","v","i","no","a","ziva","Training","alveolar","TrainingItems",0,3,3,73,NA,NA,NA,NA,NA,NA,NA,NA,NA,NA,43,FALSE,19,60.897689424,NA,"American English","VSH_Exp2","2016_Mar_23_1803",NA
"Recordings/babi.wav","yes","b","b","a","yes","i","babi","Training","bilabial","TrainingItems",0,4,4,1,NA,NA,NA,NA,NA,NA,NA,NA,NA,NA,43,FALSE,19,60.897689424,NA,"American English","VSH_Exp2","2016_Mar_23_1803",NA
"Recordings/biba.wav","yes","b","b","i","yes","a","biba","Training","bilabial","TrainingItems",0,5,5,30,NA,NA,NA,NA,NA,NA,NA,NA,NA,NA,43,FALSE,19,60.897689424,NA,"American English","VSH_Exp2","2016_Mar_23_1803",NA
"Recordings/dadi.wav","yes","d","d","a","yes","i","dadi","Training","alveolar","TrainingItems",0,6,6,10,NA,NA,NA,NA,NA,NA,NA,NA,NA,NA,43,FALSE,19,60.897689424,NA,"American English","VSH_Exp2","2016_Mar_23_1803",NA
"Recordings/zuva.wav","yes","z","v","u","no","a","zuva","Training","alveolar","TrainingItems",0,7,7,64,NA,NA,NA,NA,NA,NA,NA,NA,NA,NA,43,FALSE,19,60.897689424,NA,"American English","VSH_Exp2","2016_Mar_23_1803",NA
"Recordings/baba.wav","yes","b","b","a","yes","a","baba","Training","bilabial","TrainingItems",0,8,8,68,NA,NA,NA,NA,NA,NA,NA,NA,NA,NA,43,FALSE,19,60.897689424,NA,"American English","VSH_Exp2","2016_Mar_23_1803",NA
"Recordings/sufa.wav","no","s","f","u","no","a","sufa","Training","alveolar","TrainingItems",0,9,9,71,NA,NA,NA,NA,NA,NA,NA,NA,NA,NA,43,FALSE,19,60.897689424,NA,"American English","VSH_Exp2","2016_Mar_23_1803",NA
"Recordings/pupu.wav","no","p","p","u","yes","u","pupu","Training","bilabial","TrainingItems",0,10,10,95,NA,NA,NA,NA,NA,NA,NA,NA,NA,NA,43,FALSE,19,60.897689424,NA,"American English","VSH_Exp2","2016_Mar_23_1803",NA
"Recordings/sufi.wav","no","s","f","u","no","i","sufi","Training","alveolar","TrainingItems",0,11,11,28,NA,NA,NA,NA,NA,NA,NA,NA,NA,NA,43,FALSE,19,60.897689424,NA,"American English","VSH_Exp2","2016_Mar_23_1803",NA
"Recordings/vivi.wav","yes","v","v","i","no","i","vivi","Training","bilabial","TrainingItems",0,12,12,83,NA,NA,NA,NA,NA,NA,NA,NA,NA,NA,43,FALSE,19,60.897689424,NA,"American English","VSH_Exp2","2016_Mar_23_1803",NA
"Recordings/fasa.wav","no","f","s","a","no","a","fasa","Training","bilabial","TrainingItems",0,13,13,82,NA,NA,NA,NA,NA,NA,NA,NA,NA,NA,43,FALSE,19,60.897689424,NA,"American English","VSH_Exp2","2016_Mar_23_1803",NA
"Recordings/dudi.wav","yes","d","d","u","yes","i","dudi","Training","alveolar","TrainingItems",0,14,14,7,NA,NA,NA,NA,NA,NA,NA,NA,NA,NA,43,FALSE,19,60.897689424,NA,"American English","VSH_Exp2","2016_Mar_23_1803",NA
"Recordings/papa.wav","no","p","p","a","yes","a","papa","Training","bilabial","TrainingItems",0,15,15,21,NA,NA,NA,NA,NA,NA,NA,NA,NA,NA,43,FALSE,19,60.897689424,NA,"American English","VSH_Exp2","2016_Mar_23_1803",NA
"Recordings/zuvu.wav","yes","z","v","u","no","u","zuvu","Training","alveolar","TrainingItems",0,16,16,26,NA,NA,NA,NA,NA,NA,NA,NA,NA,NA,43,FALSE,19,60.897689424,NA,"American English","VSH_Exp2","2016_Mar_23_1803",NA
"Recordings/vuzi.wav","yes","v","z","u","no","i","vuzi","Training","bilabial","TrainingItems",0,17,17,52,NA,NA,NA,NA,NA,NA,NA,NA,NA,NA,43,FALSE,19,60.897689424,NA,"American English","VSH_Exp2","2016_Mar_23_1803",NA
"Recordings/fasi.wav","no","f","s","a","no","i","fasi","Training","bilabial","TrainingItems",0,18,18,19,NA,NA,NA,NA,NA,NA,NA,NA,NA,NA,43,FALSE,19,60.897689424,NA,"American English","VSH_Exp2","2016_Mar_23_1803",NA
"Recordings/vaza.wav","yes","v","z","a","no","a","vaza","Training","bilabial","TrainingItems",0,19,19,32,NA,NA,NA,NA,NA,NA,NA,NA,NA,NA,43,FALSE,19,60.897689424,NA,"American English","VSH_Exp2","2016_Mar_23_1803",NA
"Recordings/titi.wav","no","t","t","i","yes","i","titi","Training","alveolar","TrainingItems",0,20,20,65,NA,NA,NA,NA,NA,NA,NA,NA,NA,NA,43,FALSE,19,60.897689424,NA,"American English","VSH_Exp2","2016_Mar_23_1803",NA
"Recordings/sifu.wav","no","s","f","i","no","u","sifu","Training","alveolar","TrainingItems",0,21,21,99,NA,NA,NA,NA,NA,NA,NA,NA,NA,NA,43,FALSE,19,60.897689424,NA,"American English","VSH_Exp2","2016_Mar_23_1803",NA
"Recordings/fusi.wav","no","f","s","u","no","i","fusi","Training","bilabial","TrainingItems",0,22,22,17,NA,NA,NA,NA,NA,NA,NA,NA,NA,NA,43,FALSE,19,60.897689424,NA,"American English","VSH_Exp2","2016_Mar_23_1803",NA
"Recordings/fafi.wav","no","f","f","a","no","i","fafi","Training","bilabial","TrainingItems",0,23,23,14,NA,NA,NA,NA,NA,NA,NA,NA,NA,NA,43,FALSE,19,60.897689424,NA,"American English","VSH_Exp2","2016_Mar_23_1803",NA
"Recordings/sasu.wav","no","s","s","a","no","u","sasu","Training","alveolar","TrainingItems",0,24,24,0,NA,NA,NA,NA,NA,NA,NA,NA,NA,NA,43,FALSE,19,60.897689424,NA,"American English","VSH_Exp2","2016_Mar_23_1803",NA
"Recordings/fisu.wav","no","f","s","i","no","u","fisu","Training","bilabial","TrainingItems",0,25,25,72,NA,NA,NA,NA,NA,NA,NA,NA,NA,NA,43,FALSE,19,60.897689424,NA,"American English","VSH_Exp2","2016_Mar_23_1803",NA
"Recordings/susu.wav","no","s","s","u","no","u","susu","Training","alveolar","TrainingItems",0,26,26,4,NA,NA,NA,NA,NA,NA,NA,NA,NA,NA,43,FALSE,19,60.897689424,NA,"American English","VSH_Exp2","2016_Mar_23_1803",NA
"Recordings/zuvi.wav","yes","z","v","u","no","i","zuvi","Training","alveolar","TrainingItems",0,27,27,11,NA,NA,NA,NA,NA,NA,NA,NA,NA,NA,43,FALSE,19,60.897689424,NA,"American English","VSH_Exp2","2016_Mar_23_1803",NA
"Recordings/vizi.wav","yes","v","z","i","no","i","vizi","Training","bilabial","TrainingItems",0,28,28,55,NA,NA,NA,NA,NA,NA,NA,NA,NA,NA,43,FALSE,19,60.897689424,NA,"American English","VSH_Exp2","2016_Mar_23_1803",NA
"Recordings/fusu.wav","no","f","s","u","no","u","fusu","Training","bilabial","TrainingItems",0,29,29,16,NA,NA,NA,NA,NA,NA,NA,NA,NA,NA,43,FALSE,19,60.897689424,NA,"American English","VSH_Exp2","2016_Mar_23_1803",NA
"Recordings/bidi.wav","yes","b","d","i","yes","i","bidi","Training","bilabial","TrainingItems",0,30,30,23,NA,NA,NA,NA,NA,NA,NA,NA,NA,NA,43,FALSE,19,60.897689424,NA,"American English","VSH_Exp2","2016_Mar_23_1803",NA
"Recordings/fafu.wav","no","f","f","a","no","u","fafu","Training","bilabial","TrainingItems",0,31,31,45,NA,NA,NA,NA,NA,NA,NA,NA,NA,NA,43,FALSE,19,60.897689424,NA,"American English","VSH_Exp2","2016_Mar_23_1803",NA
"Recordings/dibu.wav","yes","d","b","i","yes","u","dibu","Training","alveolar","TrainingItems",0,32,32,41,NA,NA,NA,NA,NA,NA,NA,NA,NA,NA,43,FALSE,19,60.897689424,NA,"American English","VSH_Exp2","2016_Mar_23_1803",NA
"Recordings/zazi.wav","yes","z","z","a","no","i","zazi","Training","alveolar","TrainingItems",0,33,33,13,NA,NA,NA,NA,NA,NA,NA,NA,NA,NA,43,FALSE,19,60.897689424,NA,"American English","VSH_Exp2","2016_Mar_23_1803",NA
"Recordings/buda.wav","yes","b","d","u","yes","a","buda","Training","bilabial","TrainingItems",0,34,34,97,NA,NA,NA,NA,NA,NA,NA,NA,NA,NA,43,FALSE,19,60.897689424,NA,"American English","VSH_Exp2","2016_Mar_23_1803",NA
"Recordings/vuva.wav","yes","v","v","u","no","a","vuva","Training","bilabial","TrainingItems",0,35,35,85,NA,NA,NA,NA,NA,NA,NA,NA,NA,NA,43,FALSE,19,60.897689424,NA,"American English","VSH_Exp2","2016_Mar_23_1803",NA
"Recordings/zaza.wav","yes","z","z","a","no","a","zaza","Training","alveolar","TrainingItems",0,36,36,29,NA,NA,NA,NA,NA,NA,NA,NA,NA,NA,43,FALSE,19,60.897689424,NA,"American English","VSH_Exp2","2016_Mar_23_1803",NA
"Recordings/duda.wav","yes","d","d","u","yes","a","duda","Training","alveolar","TrainingItems",0,37,37,15,NA,NA,NA,NA,NA,NA,NA,NA,NA,NA,43,FALSE,19,60.897689424,NA,"American English","VSH_Exp2","2016_Mar_23_1803",NA
"Recordings/zava.wav","yes","z","v","a","no","a","zava","Training","alveolar","TrainingItems",0,38,38,24,NA,NA,NA,NA,NA,NA,NA,NA,NA,NA,43,FALSE,19,60.897689424,NA,"American English","VSH_Exp2","2016_Mar_23_1803",NA
"Recordings/zizi.wav","yes","z","z","i","no","i","zizi","Training","alveolar","TrainingItems",0,39,39,2,NA,NA,NA,NA,NA,NA,NA,NA,NA,NA,43,FALSE,19,60.897689424,NA,"American English","VSH_Exp2","2016_Mar_23_1803",NA
"Recordings/susa.wav","no","s","s","u","no","a","susa","Training","alveolar","TrainingItems",0,40,40,79,NA,NA,NA,NA,NA,NA,NA,NA,NA,NA,43,FALSE,19,60.897689424,NA,"American English","VSH_Exp2","2016_Mar_23_1803",NA
"Recordings/tuta.wav","no","t","t","u","yes","a","tuta","Training","alveolar","TrainingItems",0,41,41,43,NA,NA,NA,NA,NA,NA,NA,NA,NA,NA,43,FALSE,19,60.897689424,NA,"American English","VSH_Exp2","2016_Mar_23_1803",NA
"Recordings/susi.wav","no","s","s","u","no","i","susi","Training","alveolar","TrainingItems",0,42,42,92,NA,NA,NA,NA,NA,NA,NA,NA,NA,NA,43,FALSE,19,60.897689424,NA,"American English","VSH_Exp2","2016_Mar_23_1803",NA
"Recordings/badi.wav","yes","b","d","a","yes","i","badi","Training","bilabial","TrainingItems",0,43,43,61,NA,NA,NA,NA,NA,NA,NA,NA,NA,NA,43,FALSE,19,60.897689424,NA,"American English","VSH_Exp2","2016_Mar_23_1803",NA
"Recordings/dada.wav","yes","d","d","a","yes","a","dada","Training","alveolar","TrainingItems",0,44,44,53,NA,NA,NA,NA,NA,NA,NA,NA,NA,NA,43,FALSE,19,60.897689424,NA,"American English","VSH_Exp2","2016_Mar_23_1803",NA
"Recordings/zavu.wav","yes","z","v","a","no","u","zavu","Training","alveolar","TrainingItems",0,45,45,9,NA,NA,NA,NA,NA,NA,NA,NA,NA,NA,43,FALSE,19,60.897689424,NA,"American English","VSH_Exp2","2016_Mar_23_1803",NA
"Recordings/vavi.wav","yes","v","v","a","no","i","vavi","Training","bilabial","TrainingItems",0,46,46,20,NA,NA,NA,NA,NA,NA,NA,NA,NA,NA,43,FALSE,19,60.897689424,NA,"American English","VSH_Exp2","2016_Mar_23_1803",NA
"Recordings/viva.wav","yes","v","v","i","no","a","viva","Training","bilabial","TrainingItems",0,47,47,74,NA,NA,NA,NA,NA,NA,NA,NA,NA,NA,43,FALSE,19,60.897689424,NA,"American English","VSH_Exp2","2016_Mar_23_1803",NA
"Recordings/dubu.wav","yes","d","b","u","yes","u","dubu","Training","alveolar","TrainingItems",0,48,48,62,NA,NA,NA,NA,NA,NA,NA,NA,NA,NA,43,FALSE,19,60.897689424,NA,"American English","VSH_Exp2","2016_Mar_23_1803",NA
"Recordings/duba.wav","yes","d","b","u","yes","a","duba","Training","alveolar","TrainingItems",0,49,49,39,NA,NA,NA,NA,NA,NA,NA,NA,NA,NA,43,FALSE,19,60.897689424,NA,"American English","VSH_Exp2","2016_Mar_23_1803",NA
"Recordings/buba.wav","yes","b","b","u","yes","a","buba","Training","bilabial","TrainingItems",0,50,50,22,NA,NA,NA,NA,NA,NA,NA,NA,NA,NA,43,FALSE,19,60.897689424,NA,"American English","VSH_Exp2","2016_Mar_23_1803",NA
"Recordings/fafa.wav","no","f","f","a","no","a","fafa","Training","bilabial","TrainingItems",0,51,51,48,NA,NA,NA,NA,NA,NA,NA,NA,NA,NA,43,FALSE,19,60.897689424,NA,"American English","VSH_Exp2","2016_Mar_23_1803",NA
"Recordings/papu.wav","no","p","p","a","yes","u","papu","Training","bilabial","TrainingItems",0,52,52,36,NA,NA,NA,NA,NA,NA,NA,NA,NA,NA,43,FALSE,19,60.897689424,NA,"American English","VSH_Exp2","2016_Mar_23_1803",NA
"Recordings/tati.wav","no","t","t","a","yes","i","tati","Training","alveolar","TrainingItems",0,53,53,25,NA,NA,NA,NA,NA,NA,NA,NA,NA,NA,43,FALSE,19,60.897689424,NA,"American English","VSH_Exp2","2016_Mar_23_1803",NA
"Recordings/didi.wav","yes","d","d","i","yes","i","didi","Training","alveolar","TrainingItems",0,54,54,78,NA,NA,NA,NA,NA,NA,NA,NA,NA,NA,43,FALSE,19,60.897689424,NA,"American English","VSH_Exp2","2016_Mar_23_1803",NA
"Recordings/sisi.wav","no","s","s","i","no","i","sisi","Training","alveolar","TrainingItems",0,55,55,60,NA,NA,NA,NA,NA,NA,NA,NA,NA,NA,43,FALSE,19,60.897689424,NA,"American English","VSH_Exp2","2016_Mar_23_1803",NA
"Recordings/fufu.wav","no","f","f","u","no","u","fufu","Training","bilabial","TrainingItems",0,56,56,12,NA,NA,NA,NA,NA,NA,NA,NA,NA,NA,43,FALSE,19,60.897689424,NA,"American English","VSH_Exp2","2016_Mar_23_1803",NA
"Recordings/tata.wav","no","t","t","a","yes","a","tata","Training","alveolar","TrainingItems",0,57,57,96,NA,NA,NA,NA,NA,NA,NA,NA,NA,NA,43,FALSE,19,60.897689424,NA,"American English","VSH_Exp2","2016_Mar_23_1803",NA
"Recordings/pipi.wav","no","p","p","i","yes","i","pipi","Training","bilabial","TrainingItems",0,58,58,54,NA,NA,NA,NA,NA,NA,NA,NA,NA,NA,43,FALSE,19,60.897689424,NA,"American English","VSH_Exp2","2016_Mar_23_1803",NA
"Recordings/vazu.wav","yes","v","z","a","no","u","vazu","Training","bilabial","TrainingItems",0,59,59,37,NA,NA,NA,NA,NA,NA,NA,NA,NA,NA,43,FALSE,19,60.897689424,NA,"American English","VSH_Exp2","2016_Mar_23_1803",NA
"Recordings/badu.wav","yes","b","d","a","yes","u","badu","Training","bilabial","TrainingItems",0,60,60,40,NA,NA,NA,NA,NA,NA,NA,NA,NA,NA,43,FALSE,19,60.897689424,NA,"American English","VSH_Exp2","2016_Mar_23_1803",NA
"Recordings/zuza.wav","yes","z","z","u","no","a","zuza","Training","alveolar","TrainingItems",0,61,61,81,NA,NA,NA,NA,NA,NA,NA,NA,NA,NA,43,FALSE,19,60.897689424,NA,"American English","VSH_Exp2","2016_Mar_23_1803",NA
"Recordings/bada.wav","yes","b","d","a","yes","a","bada","Training","bilabial","TrainingItems",0,62,62,89,NA,NA,NA,NA,NA,NA,NA,NA,NA,NA,43,FALSE,19,60.897689424,NA,"American English","VSH_Exp2","2016_Mar_23_1803",NA
"Recordings/bidu.wav","yes","b","d","i","yes","u","bidu","Training","bilabial","TrainingItems",0,63,63,38,NA,NA,NA,NA,NA,NA,NA,NA,NA,NA,43,FALSE,19,60.897689424,NA,"American English","VSH_Exp2","2016_Mar_23_1803",NA
"Recordings/dibi.wav","yes","d","b","i","yes","i","dibi","Training","alveolar","TrainingItems",0,64,64,5,NA,NA,NA,NA,NA,NA,NA,NA,NA,NA,43,FALSE,19,60.897689424,NA,"American English","VSH_Exp2","2016_Mar_23_1803",NA
"Recordings/ziza.wav","yes","z","z","i","no","a","ziza","Training","alveolar","TrainingItems",0,65,65,77,NA,NA,NA,NA,NA,NA,NA,NA,NA,NA,43,FALSE,19,60.897689424,NA,"American English","VSH_Exp2","2016_Mar_23_1803",NA
"Recordings/papi.wav","no","p","p","a","yes","i","papi","Training","bilabial","TrainingItems",0,66,66,49,NA,NA,NA,NA,NA,NA,NA,NA,NA,NA,43,FALSE,19,60.897689424,NA,"American English","VSH_Exp2","2016_Mar_23_1803",NA
"Recordings/budu.wav","yes","b","d","u","yes","u","budu","Training","bilabial","TrainingItems",0,67,67,3,NA,NA,NA,NA,NA,NA,NA,NA,NA,NA,43,FALSE,19,60.897689424,NA,"American English","VSH_Exp2","2016_Mar_23_1803",NA
"Recordings/fisi.wav","no","f","s","i","no","i","fisi","Training","bilabial","TrainingItems",0,68,68,59,NA,NA,NA,NA,NA,NA,NA,NA,NA,NA,43,FALSE,19,60.897689424,NA,"American English","VSH_Exp2","2016_Mar_23_1803",NA
"Recordings/vivu.wav","yes","v","v","i","no","u","vivu","Training","bilabial","TrainingItems",0,69,69,56,NA,NA,NA,NA,NA,NA,NA,NA,NA,NA,43,FALSE,19,60.897689424,NA,"American English","VSH_Exp2","2016_Mar_23_1803",NA
"Recordings/sisa.wav","no","s","s","i","no","a","sisa","Training","alveolar","TrainingItems",0,70,70,86,NA,NA,NA,NA,NA,NA,NA,NA,NA,NA,43,FALSE,19,60.897689424,NA,"American English","VSH_Exp2","2016_Mar_23_1803",NA
"Recordings/babu.wav","yes","b","b","a","yes","u","babu","Training","bilabial","TrainingItems",0,71,71,63,NA,NA,NA,NA,NA,NA,NA,NA,NA,NA,43,FALSE,19,60.897689424,NA,"American English","VSH_Exp2","2016_Mar_23_1803",NA
"Recordings/vuvu.wav","yes","v","v","u","no","u","vuvu","Training","bilabial","TrainingItems",0,72,72,35,NA,NA,NA,NA,NA,NA,NA,NA,NA,NA,43,FALSE,19,60.897689424,NA,"American English","VSH_Exp2","2016_Mar_23_1803",NA
"Recordings/dida.wav","yes","d","d","i","yes","a","dida","Training","alveolar","TrainingItems",0,73,73,98,NA,NA,NA,NA,NA,NA,NA,NA,NA,NA,43,FALSE,19,60.897689424,NA,"American English","VSH_Exp2","2016_Mar_23_1803",NA
"Recordings/bibu.wav","yes","b","b","i","yes","u","bibu","Training","bilabial","TrainingItems",0,74,74,27,NA,NA,NA,NA,NA,NA,NA,NA,NA,NA,43,FALSE,19,60.897689424,NA,"American English","VSH_Exp2","2016_Mar_23_1803",NA
"Recordings/dudu.wav","yes","d","d","u","yes","u","dudu","Training","alveolar","TrainingItems",0,75,75,90,NA,NA,NA,NA,NA,NA,NA,NA,NA,NA,43,FALSE,19,60.897689424,NA,"American English","VSH_Exp2","2016_Mar_23_1803",NA
"Recordings/bubi.wav","yes","b","b","u","yes","i","bubi","Training","bilabial","TrainingItems",0,76,76,94,NA,NA,NA,NA,NA,NA,NA,NA,NA,NA,43,FALSE,19,60.897689424,NA,"American English","VSH_Exp2","2016_Mar_23_1803",NA
"Recordings/fufa.wav","no","f","f","u","no","a","fufa","Training","bilabial","TrainingItems",0,77,77,91,NA,NA,NA,NA,NA,NA,NA,NA,NA,NA,43,FALSE,19,60.897689424,NA,"American English","VSH_Exp2","2016_Mar_23_1803",NA
"Recordings/budi.wav","yes","b","d","u","yes","i","budi","Training","bilabial","TrainingItems",0,78,78,57,NA,NA,NA,NA,NA,NA,NA,NA,NA,NA,43,FALSE,19,60.897689424,NA,"American English","VSH_Exp2","2016_Mar_23_1803",NA
"Recordings/zivu.wav","yes","z","v","i","no","u","zivu","Training","alveolar","TrainingItems",0,79,79,93,NA,NA,NA,NA,NA,NA,NA,NA,NA,NA,43,FALSE,19,60.897689424,NA,"American English","VSH_Exp2","2016_Mar_23_1803",NA
"Recordings/fifi.wav","no","f","f","i","no","i","fifi","Training","bilabial","TrainingItems",0,80,80,34,NA,NA,NA,NA,NA,NA,NA,NA,NA,NA,43,FALSE,19,60.897689424,NA,"American English","VSH_Exp2","2016_Mar_23_1803",NA
"Recordings/safi.wav","no","s","f","a","no","i","safi","Training","alveolar","TrainingItems",0,81,81,75,NA,NA,NA,NA,NA,NA,NA,NA,NA,NA,43,FALSE,19,60.897689424,NA,"American English","VSH_Exp2","2016_Mar_23_1803",NA
"Recordings/zazu.wav","yes","z","z","a","no","u","zazu","Training","alveolar","TrainingItems",0,82,82,66,NA,NA,NA,NA,NA,NA,NA,NA,NA,NA,43,FALSE,19,60.897689424,NA,"American English","VSH_Exp2","2016_Mar_23_1803",NA
"Recordings/viza.wav","yes","v","z","i","no","a","viza","Training","bilabial","TrainingItems",0,83,83,84,NA,NA,NA,NA,NA,NA,NA,NA,NA,NA,43,FALSE,19,60.897689424,NA,"American English","VSH_Exp2","2016_Mar_23_1803",NA
"Recordings/sifi.wav","no","s","f","i","no","i","sifi","Training","alveolar","TrainingItems",0,84,84,50,NA,NA,NA,NA,NA,NA,NA,NA,NA,NA,43,FALSE,19,60.897689424,NA,"American English","VSH_Exp2","2016_Mar_23_1803",NA
"Recordings/diba.wav","yes","d","b","i","yes","a","diba","Training","alveolar","TrainingItems",0,85,85,70,NA,NA,NA,NA,NA,NA,NA,NA,NA,NA,43,FALSE,19,60.897689424,NA,"American English","VSH_Exp2","2016_Mar_23_1803",NA
"Recordings/vavu.wav","yes","v","v","a","no","u","vavu","Training","bilabial","TrainingItems",0,86,86,58,NA,NA,NA,NA,NA,NA,NA,NA,NA,NA,43,FALSE,19,60.897689424,NA,"American English","VSH_Exp2","2016_Mar_23_1803",NA
"Recordings/bida.wav","yes","b","d","i","yes","a","bida","Training","bilabial","TrainingItems",0,87,87,44,NA,NA,NA,NA,NA,NA,NA,NA,NA,NA,43,FALSE,19,60.897689424,NA,"American English","VSH_Exp2","2016_Mar_23_1803",NA
"Recordings/zivi.wav","yes","z","v","i","no","i","zivi","Training","alveolar","TrainingItems",0,88,88,88,NA,NA,NA,NA,NA,NA,NA,NA,NA,NA,43,FALSE,19,60.897689424,NA,"American English","VSH_Exp2","2016_Mar_23_1803",NA
"Recordings/pipu.wav","no","p","p","i","yes","u","pipu","Training","bilabial","TrainingItems",0,89,89,6,NA,NA,NA,NA,NA,NA,NA,NA,NA,NA,43,FALSE,19,60.897689424,NA,"American English","VSH_Exp2","2016_Mar_23_1803",NA
"Recordings/pupa.wav","no","p","p","u","yes","a","pupa","Training","bilabial","TrainingItems",0,90,90,80,NA,NA,NA,NA,NA,NA,NA,NA,NA,NA,43,FALSE,19,60.897689424,NA,"American English","VSH_Exp2","2016_Mar_23_1803",NA
"Recordings/dubi.wav","yes","d","b","u","yes","i","dubi","Training","alveolar","TrainingItems",0,91,91,76,NA,NA,NA,NA,NA,NA,NA,NA,NA,NA,43,FALSE,19,60.897689424,NA,"American English","VSH_Exp2","2016_Mar_23_1803",NA
"Recordings/sasi.wav","no","s","s","a","no","i","sasi","Training","alveolar","TrainingItems",0,92,92,8,NA,NA,NA,NA,NA,NA,NA,NA,NA,NA,43,FALSE,19,60.897689424,NA,"American English","VSH_Exp2","2016_Mar_23_1803",NA
"Recordings/bibi.wav","yes","b","b","i","yes","i","bibi","Training","bilabial","TrainingItems",0,93,93,33,NA,NA,NA,NA,NA,NA,NA,NA,NA,NA,43,FALSE,19,60.897689424,NA,"American English","VSH_Exp2","2016_Mar_23_1803",NA
"Recordings/zizu.wav","yes","z","z","i","no","u","zizu","Training","alveolar","TrainingItems",0,94,94,67,NA,NA,NA,NA,NA,NA,NA,NA,NA,NA,43,FALSE,19,60.897689424,NA,"American English","VSH_Exp2","2016_Mar_23_1803",NA
"Recordings/safu.wav","no","s","f","a","no","u","safu","Training","alveolar","TrainingItems",0,95,95,69,NA,NA,NA,NA,NA,NA,NA,NA,NA,NA,43,FALSE,19,60.897689424,NA,"American English","VSH_Exp2","2016_Mar_23_1803",NA
"Recordings/tatu.wav","no","t","t","a","yes","u","tatu","Training","alveolar","TrainingItems",0,96,96,18,NA,NA,NA,NA,NA,NA,NA,NA,NA,NA,43,FALSE,19,60.897689424,NA,"American English","VSH_Exp2","2016_Mar_23_1803",NA
"Recordings/sasa.wav","no","s","s","a","no","a","sasa","Training","alveolar","TrainingItems",0,97,97,87,NA,NA,NA,NA,NA,NA,NA,NA,NA,NA,43,FALSE,19,60.897689424,NA,"American English","VSH_Exp2","2016_Mar_23_1803",NA
"Recordings/bubu.wav","yes","b","b","u","yes","u","bubu","Training","bilabial","TrainingItems",0,98,98,51,NA,NA,NA,NA,NA,NA,NA,NA,NA,NA,43,FALSE,19,60.897689424,NA,"American English","VSH_Exp2","2016_Mar_23_1803",NA
"Recordings/dadu.wav","yes","d","d","a","yes","u","dadu","Training","alveolar","TrainingItems",0,99,99,42,NA,NA,NA,NA,NA,NA,NA,NA,NA,NA,43,FALSE,19,60.897689424,NA,"American English","VSH_Exp2","2016_Mar_23_1803",NA
"Recordings/fifi.wav","no","f","f","i","no","i","fifi","Training","bilabial","TrainingItems",1,0,100,34,NA,NA,NA,NA,NA,NA,NA,NA,NA,NA,43,FALSE,19,60.897689424,NA,"American English","VSH_Exp2","2016_Mar_23_1803",NA
"Recordings/ziza.wav","yes","z","z","i","no","a","ziza","Training","alveolar","TrainingItems",1,1,101,77,NA,NA,NA,NA,NA,NA,NA,NA,NA,NA,43,FALSE,19,60.897689424,NA,"American English","VSH_Exp2","2016_Mar_23_1803",NA
"Recordings/vuva.wav","yes","v","v","u","no","a","vuva","Training","bilabial","TrainingItems",1,2,102,85,NA,NA,NA,NA,NA,NA,NA,NA,NA,NA,43,FALSE,19,60.897689424,NA,"American English","VSH_Exp2","2016_Mar_23_1803",NA
"Recordings/fasi.wav","no","f","s","a","no","i","fasi","Training","bilabial","TrainingItems",1,3,103,19,NA,NA,NA,NA,NA,NA,NA,NA,NA,NA,43,FALSE,19,60.897689424,NA,"American English","VSH_Exp2","2016_Mar_23_1803",NA
"Recordings/zuva.wav","yes","z","v","u","no","a","zuva","Training","alveolar","TrainingItems",1,4,104,64,NA,NA,NA,NA,NA,NA,NA,NA,NA,NA,43,FALSE,19,60.897689424,NA,"American English","VSH_Exp2","2016_Mar_23_1803",NA
"Recordings/didi.wav","yes","d","d","i","yes","i","didi","Training","alveolar","TrainingItems",1,5,105,78,NA,NA,NA,NA,NA,NA,NA,NA,NA,NA,43,FALSE,19,60.897689424,NA,"American English","VSH_Exp2","2016_Mar_23_1803",NA
"Recordings/babu.wav","yes","b","b","a","yes","u","babu","Training","bilabial","TrainingItems",1,6,106,63,NA,NA,NA,NA,NA,NA,NA,NA,NA,NA,43,FALSE,19,60.897689424,NA,"American English","VSH_Exp2","2016_Mar_23_1803",NA
"Recordings/zivu.wav","yes","z","v","i","no","u","zivu","Training","alveolar","TrainingItems",1,7,107,93,NA,NA,NA,NA,NA,NA,NA,NA,NA,NA,43,FALSE,19,60.897689424,NA,"American English","VSH_Exp2","2016_Mar_23_1803",NA
"Recordings/safi.wav","no","s","f","a","no","i","safi","Training","alveolar","TrainingItems",1,8,108,75,NA,NA,NA,NA,NA,NA,NA,NA,NA,NA,43,FALSE,19,60.897689424,NA,"American English","VSH_Exp2","2016_Mar_23_1803",NA
"Recordings/susu.wav","no","s","s","u","no","u","susu","Training","alveolar","TrainingItems",1,9,109,4,NA,NA,NA,NA,NA,NA,NA,NA,NA,NA,43,FALSE,19,60.897689424,NA,"American English","VSH_Exp2","2016_Mar_23_1803",NA
"Recordings/buda.wav","yes","b","d","u","yes","a","buda","Training","bilabial","TrainingItems",1,10,110,97,NA,NA,NA,NA,NA,NA,NA,NA,NA,NA,43,FALSE,19,60.897689424,NA,"American English","VSH_Exp2","2016_Mar_23_1803",NA
"Recordings/tatu.wav","no","t","t","a","yes","u","tatu","Training","alveolar","TrainingItems",1,11,111,18,NA,NA,NA,NA,NA,NA,NA,NA,NA,NA,43,FALSE,19,60.897689424,NA,"American English","VSH_Exp2","2016_Mar_23_1803",NA
"Recordings/sifi.wav","no","s","f","i","no","i","sifi","Training","alveolar","TrainingItems",1,12,112,50,NA,NA,NA,NA,NA,NA,NA,NA,NA,NA,43,FALSE,19,60.897689424,NA,"American English","VSH_Exp2","2016_Mar_23_1803",NA
"Recordings/sisi.wav","no","s","s","i","no","i","sisi","Training","alveolar","TrainingItems",1,13,113,60,NA,NA,NA,NA,NA,NA,NA,NA,NA,NA,43,FALSE,19,60.897689424,NA,"American English","VSH_Exp2","2016_Mar_23_1803",NA
"Recordings/zavu.wav","yes","z","v","a","no","u","zavu","Training","alveolar","TrainingItems",1,14,114,9,NA,NA,NA,NA,NA,NA,NA,NA,NA,NA,43,FALSE,19,60.897689424,NA,"American English","VSH_Exp2","2016_Mar_23_1803",NA
"Recordings/dadu.wav","yes","d","d","a","yes","u","dadu","Training","alveolar","TrainingItems",1,15,115,42,NA,NA,NA,NA,NA,NA,NA,NA,NA,NA,43,FALSE,19,60.897689424,NA,"American English","VSH_Exp2","2016_Mar_23_1803",NA
"Recordings/zazi.wav","yes","z","z","a","no","i","zazi","Training","alveolar","TrainingItems",1,16,116,13,NA,NA,NA,NA,NA,NA,NA,NA,NA,NA,43,FALSE,19,60.897689424,NA,"American English","VSH_Exp2","2016_Mar_23_1803",NA
"Recordings/zizi.wav","yes","z","z","i","no","i","zizi","Training","alveolar","TrainingItems",1,17,117,2,NA,NA,NA,NA,NA,NA,NA,NA,NA,NA,43,FALSE,19,60.897689424,NA,"American English","VSH_Exp2","2016_Mar_23_1803",NA
"Recordings/sufa.wav","no","s","f","u","no","a","sufa","Training","alveolar","TrainingItems",1,18,118,71,NA,NA,NA,NA,NA,NA,NA,NA,NA,NA,43,FALSE,19,60.897689424,NA,"American English","VSH_Exp2","2016_Mar_23_1803",NA
"Recordings/zava.wav","yes","z","v","a","no","a","zava","Training","alveolar","TrainingItems",1,19,119,24,NA,NA,NA,NA,NA,NA,NA,NA,NA,NA,43,FALSE,19,60.897689424,NA,"American English","VSH_Exp2","2016_Mar_23_1803",NA
"Recordings/sisa.wav","no","s","s","i","no","a","sisa","Training","alveolar","TrainingItems",1,20,120,86,NA,NA,NA,NA,NA,NA,NA,NA,NA,NA,43,FALSE,19,60.897689424,NA,"American English","VSH_Exp2","2016_Mar_23_1803",NA
"Recordings/fisu.wav","no","f","s","i","no","u","fisu","Training","bilabial","TrainingItems",1,21,121,72,NA,NA,NA,NA,NA,NA,NA,NA,NA,NA,43,FALSE,19,60.897689424,NA,"American English","VSH_Exp2","2016_Mar_23_1803",NA
"Recordings/vivi.wav","yes","v","v","i","no","i","vivi","Training","bilabial","TrainingItems",1,22,122,83,NA,NA,NA,NA,NA,NA,NA,NA,NA,NA,43,FALSE,19,60.897689424,NA,"American English","VSH_Exp2","2016_Mar_23_1803",NA
"Recordings/zaza.wav","yes","z","z","a","no","a","zaza","Training","alveolar","TrainingItems",1,23,123,29,NA,NA,NA,NA,NA,NA,NA,NA,NA,NA,43,FALSE,19,60.897689424,NA,"American English","VSH_Exp2","2016_Mar_23_1803",NA
"Recordings/viva.wav","yes","v","v","i","no","a","viva","Training","bilabial","TrainingItems",1,24,124,74,NA,NA,NA,NA,NA,NA,NA,NA,NA,NA,43,FALSE,19,60.897689424,NA,"American English","VSH_Exp2","2016_Mar_23_1803",NA
"Recordings/didu.wav","yes","d","d","i","yes","u","didu","Training","alveolar","TrainingItems",1,25,125,46,NA,NA,NA,NA,NA,NA,NA,NA,NA,NA,43,FALSE,19,60.897689424,NA,"American English","VSH_Exp2","2016_Mar_23_1803",NA
"Recordings/dibi.wav","yes","d","b","i","yes","i","dibi","Training","alveolar","TrainingItems",1,26,126,5,NA,NA,NA,NA,NA,NA,NA,NA,NA,NA,43,FALSE,19,60.897689424,NA,"American English","VSH_Exp2","2016_Mar_23_1803",NA
"Recordings/dudu.wav","yes","d","d","u","yes","u","dudu","Training","alveolar","TrainingItems",1,27,127,90,NA,NA,NA,NA,NA,NA,NA,NA,NA,NA,43,FALSE,19,60.897689424,NA,"American English","VSH_Exp2","2016_Mar_23_1803",NA
"Recordings/bidu.wav","yes","b","d","i","yes","u","bidu","Training","bilabial","TrainingItems",1,28,128,38,NA,NA,NA,NA,NA,NA,NA,NA,NA,NA,43,FALSE,19,60.897689424,NA,"American English","VSH_Exp2","2016_Mar_23_1803",NA
"Recordings/safu.wav","no","s","f","a","no","u","safu","Training","alveolar","TrainingItems",1,29,129,69,NA,NA,NA,NA,NA,NA,NA,NA,NA,NA,43,FALSE,19,60.897689424,NA,"American English","VSH_Exp2","2016_Mar_23_1803",NA
"Recordings/tuta.wav","no","t","t","u","yes","a","tuta","Training","alveolar","TrainingItems",1,30,130,43,NA,NA,NA,NA,NA,NA,NA,NA,NA,NA,43,FALSE,19,60.897689424,NA,"American English","VSH_Exp2","2016_Mar_23_1803",NA
"Recordings/babi.wav","yes","b","b","a","yes","i","babi","Training","bilabial","TrainingItems",1,31,131,1,NA,NA,NA,NA,NA,NA,NA,NA,NA,NA,43,FALSE,19,60.897689424,NA,"American English","VSH_Exp2","2016_Mar_23_1803",NA
"Recordings/sasa.wav","no","s","s","a","no","a","sasa","Training","alveolar","TrainingItems",1,32,132,87,NA,NA,NA,NA,NA,NA,NA,NA,NA,NA,43,FALSE,19,60.897689424,NA,"American English","VSH_Exp2","2016_Mar_23_1803",NA
"Recordings/dudi.wav","yes","d","d","u","yes","i","dudi","Training","alveolar","TrainingItems",1,33,133,7,NA,NA,NA,NA,NA,NA,NA,NA,NA,NA,43,FALSE,19,60.897689424,NA,"American English","VSH_Exp2","2016_Mar_23_1803",NA
"Recordings/fafu.wav","no","f","f","a","no","u","fafu","Training","bilabial","TrainingItems",1,34,134,45,NA,NA,NA,NA,NA,NA,NA,NA,NA,NA,43,FALSE,19,60.897689424,NA,"American English","VSH_Exp2","2016_Mar_23_1803",NA
"Recordings/baba.wav","yes","b","b","a","yes","a","baba","Training","bilabial","TrainingItems",1,35,135,68,NA,NA,NA,NA,NA,NA,NA,NA,NA,NA,43,FALSE,19,60.897689424,NA,"American English","VSH_Exp2","2016_Mar_23_1803",NA
"Recordings/duda.wav","yes","d","d","u","yes","a","duda","Training","alveolar","TrainingItems",1,36,136,15,NA,NA,NA,NA,NA,NA,NA,NA,NA,NA,43,FALSE,19,60.897689424,NA,"American English","VSH_Exp2","2016_Mar_23_1803",NA
"Recordings/zuvi.wav","yes","z","v","u","no","i","zuvi","Training","alveolar","TrainingItems",1,37,137,11,NA,NA,NA,NA,NA,NA,NA,NA,NA,NA,43,FALSE,19,60.897689424,NA,"American English","VSH_Exp2","2016_Mar_23_1803",NA
"Recordings/bidi.wav","yes","b","d","i","yes","i","bidi","Training","bilabial","TrainingItems",1,38,138,23,NA,NA,NA,NA,NA,NA,NA,NA,NA,NA,43,FALSE,19,60.897689424,NA,"American English","VSH_Exp2","2016_Mar_23_1803",NA
"Recordings/biba.wav","yes","b","b","i","yes","a","biba","Training","bilabial","TrainingItems",1,39,139,30,NA,NA,NA,NA,NA,NA,NA,NA,NA,NA,43,FALSE,19,60.897689424,NA,"American English","VSH_Exp2","2016_Mar_23_1803",NA
"Recordings/sifu.wav","no","s","f","i","no","u","sifu","Training","alveolar","TrainingItems",1,40,140,99,NA,NA,NA,NA,NA,NA,NA,NA,NA,NA,43,FALSE,19,60.897689424,NA,"American English","VSH_Exp2","2016_Mar_23_1803",NA
"Recordings/vivu.wav","yes","v","v","i","no","u","vivu","Training","bilabial","TrainingItems",1,41,141,56,NA,NA,NA,NA,NA,NA,NA,NA,NA,NA,43,FALSE,19,60.897689424,NA,"American English","VSH_Exp2","2016_Mar_23_1803",NA
"Recordings/vazu.wav","yes","v","z","a","no","u","vazu","Training","bilabial","TrainingItems",1,42,142,37,NA,NA,NA,NA,NA,NA,NA,NA,NA,NA,43,FALSE,19,60.897689424,NA,"American English","VSH_Exp2","2016_Mar_23_1803",NA
"Recordings/dadi.wav","yes","d","d","a","yes","i","dadi","Training","alveolar","TrainingItems",1,43,143,10,NA,NA,NA,NA,NA,NA,NA,NA,NA,NA,43,FALSE,19,60.897689424,NA,"American English","VSH_Exp2","2016_Mar_23_1803",NA
"Recordings/tata.wav","no","t","t","a","yes","a","tata","Training","alveolar","TrainingItems",1,44,144,96,NA,NA,NA,NA,NA,NA,NA,NA,NA,NA,43,FALSE,19,60.897689424,NA,"American English","VSH_Exp2","2016_Mar_23_1803",NA
"Recordings/vuzi.wav","yes","v","z","u","no","i","vuzi","Training","bilabial","TrainingItems",1,45,145,52,NA,NA,NA,NA,NA,NA,NA,NA,NA,NA,43,FALSE,19,60.897689424,NA,"American English","VSH_Exp2","2016_Mar_23_1803",NA
"Recordings/budu.wav","yes","b","d","u","yes","u","budu","Training","bilabial","TrainingItems",1,46,146,3,NA,NA,NA,NA,NA,NA,NA,NA,NA,NA,43,FALSE,19,60.897689424,NA,"American English","VSH_Exp2","2016_Mar_23_1803",NA
"Recordings/papa.wav","no","p","p","a","yes","a","papa","Training","bilabial","TrainingItems",1,47,147,21,NA,NA,NA,NA,NA,NA,NA,NA,NA,NA,43,FALSE,19,60.897689424,NA,"American English","VSH_Exp2","2016_Mar_23_1803",NA
"Recordings/zivi.wav","yes","z","v","i","no","i","zivi","Training","alveolar","TrainingItems",1,48,148,88,NA,NA,NA,NA,NA,NA,NA,NA,NA,NA,43,FALSE,19,60.897689424,NA,"American English","VSH_Exp2","2016_Mar_23_1803",NA
"Recordings/budi.wav","yes","b","d","u","yes","i","budi","Training","bilabial","TrainingItems",1,49,149,57,NA,NA,NA,NA,NA,NA,NA,NA,NA,NA,43,FALSE,19,60.897689424,NA,"American English","VSH_Exp2","2016_Mar_23_1803",NA
"Recordings/pupa.wav","no","p","p","u","yes","a","pupa","Training","bilabial","TrainingItems",1,50,150,80,NA,NA,NA,NA,NA,NA,NA,NA,NA,NA,43,FALSE,19,60.897689424,NA,"American English","VSH_Exp2","2016_Mar_23_1803",NA
"Recordings/pipi.wav","no","p","p","i","yes","i","pipi","Training","bilabial","TrainingItems",1,51,151,54,NA,NA,NA,NA,NA,NA,NA,NA,NA,NA,43,FALSE,19,60.897689424,NA,"American English","VSH_Exp2","2016_Mar_23_1803",NA
"Recordings/pupu.wav","no","p","p","u","yes","u","pupu","Training","bilabial","TrainingItems",1,52,152,95,NA,NA,NA,NA,NA,NA,NA,NA,NA,NA,43,FALSE,19,60.897689424,NA,"American English","VSH_Exp2","2016_Mar_23_1803",NA
"Recordings/papu.wav","no","p","p","a","yes","u","papu","Training","bilabial","TrainingItems",1,53,153,36,NA,NA,NA,NA,NA,NA,NA,NA,NA,NA,43,FALSE,19,60.897689424,NA,"American English","VSH_Exp2","2016_Mar_23_1803",NA
"Recordings/pipa.wav","no","p","p","i","yes","a","pipa","Training","bilabial","TrainingItems",1,54,154,31,NA,NA,NA,NA,NA,NA,NA,NA,NA,NA,43,FALSE,19,60.897689424,NA,"American English","VSH_Exp2","2016_Mar_23_1803",NA
"Recordings/fafi.wav","no","f","f","a","no","i","fafi","Training","bilabial","TrainingItems",1,55,155,14,NA,NA,NA,NA,NA,NA,NA,NA,NA,NA,43,FALSE,19,60.897689424,NA,"American English","VSH_Exp2","2016_Mar_23_1803",NA
"Recordings/susa.wav","no","s","s","u","no","a","susa","Training","alveolar","TrainingItems",1,56,156,79,NA,NA,NA,NA,NA,NA,NA,NA,NA,NA,43,FALSE,19,60.897689424,NA,"American English","VSH_Exp2","2016_Mar_23_1803",NA
"Recordings/sasu.wav","no","s","s","a","no","u","sasu","Training","alveolar","TrainingItems",1,57,157,0,NA,NA,NA,NA,NA,NA,NA,NA,NA,NA,43,FALSE,19,60.897689424,NA,"American English","VSH_Exp2","2016_Mar_23_1803",NA
"Recordings/tati.wav","no","t","t","a","yes","i","tati","Training","alveolar","TrainingItems",1,58,158,25,NA,NA,NA,NA,NA,NA,NA,NA,NA,NA,43,FALSE,19,60.897689424,NA,"American English","VSH_Exp2","2016_Mar_23_1803",NA
"Recordings/vaza.wav","yes","v","z","a","no","a","vaza","Training","bilabial","TrainingItems",1,59,159,32,NA,NA,NA,NA,NA,NA,NA,NA,NA,NA,43,FALSE,19,60.897689424,NA,"American English","VSH_Exp2","2016_Mar_23_1803",NA
"Recordings/pipu.wav","no","p","p","i","yes","u","pipu","Training","bilabial","TrainingItems",1,60,160,6,NA,NA,NA,NA,NA,NA,NA,NA,NA,NA,43,FALSE,19,60.897689424,NA,"American English","VSH_Exp2","2016_Mar_23_1803",NA
"Recordings/zuza.wav","yes","z","z","u","no","a","zuza","Training","alveolar","TrainingItems",1,61,161,81,NA,NA,NA,NA,NA,NA,NA,NA,NA,NA,43,FALSE,19,60.897689424,NA,"American English","VSH_Exp2","2016_Mar_23_1803",NA
"Recordings/dada.wav","yes","d","d","a","yes","a","dada","Training","alveolar","TrainingItems",1,62,162,53,NA,NA,NA,NA,NA,NA,NA,NA,NA,NA,43,FALSE,19,60.897689424,NA,"American English","VSH_Exp2","2016_Mar_23_1803",NA
"Recordings/vizi.wav","yes","v","z","i","no","i","vizi","Training","bilabial","TrainingItems",1,63,163,55,NA,NA,NA,NA,NA,NA,NA,NA,NA,NA,43,FALSE,19,60.897689424,NA,"American English","VSH_Exp2","2016_Mar_23_1803",NA
"Recordings/zazu.wav","yes","z","z","a","no","u","zazu","Training","alveolar","TrainingItems",1,64,164,66,NA,NA,NA,NA,NA,NA,NA,NA,NA,NA,43,FALSE,19,60.897689424,NA,"American English","VSH_Exp2","2016_Mar_23_1803",NA
"Recordings/zuvu.wav","yes","z","v","u","no","u","zuvu","Training","alveolar","TrainingItems",1,65,165,26,NA,NA,NA,NA,NA,NA,NA,NA,NA,NA,43,FALSE,19,60.897689424,NA,"American English","VSH_Exp2","2016_Mar_23_1803",NA
"Recordings/fafa.wav","no","f","f","a","no","a","fafa","Training","bilabial","TrainingItems",1,66,166,48,NA,NA,NA,NA,NA,NA,NA,NA,NA,NA,43,FALSE,19,60.897689424,NA,"American English","VSH_Exp2","2016_Mar_23_1803",NA
"Recordings/fufi.wav","no","f","f","u","no","i","fufi","Training","bilabial","TrainingItems",1,67,167,47,NA,NA,NA,NA,NA,NA,NA,NA,NA,NA,43,FALSE,19,60.897689424,NA,"American English","VSH_Exp2","2016_Mar_23_1803",NA
"Recordings/vavu.wav","yes","v","v","a","no","u","vavu","Training","bilabial","TrainingItems",1,68,168,58,NA,NA,NA,NA,NA,NA,NA,NA,NA,NA,43,FALSE,19,60.897689424,NA,"American English","VSH_Exp2","2016_Mar_23_1803",NA
"Recordings/bibu.wav","yes","b","b","i","yes","u","bibu","Training","bilabial","TrainingItems",1,69,169,27,NA,NA,NA,NA,NA,NA,NA,NA,NA,NA,43,FALSE,19,60.897689424,NA,"American English","VSH_Exp2","2016_Mar_23_1803",NA
"Recordings/bada.wav","yes","b","d","a","yes","a","bada","Training","bilabial","TrainingItems",1,70,170,89,NA,NA,NA,NA,NA,NA,NA,NA,NA,NA,43,FALSE,19,60.897689424,NA,"American English","VSH_Exp2","2016_Mar_23_1803",NA
"Recordings/sasi.wav","no","s","s","a","no","i","sasi","Training","alveolar","TrainingItems",1,71,171,8,NA,NA,NA,NA,NA,NA,NA,NA,NA,NA,43,FALSE,19,60.897689424,NA,"American English","VSH_Exp2","2016_Mar_23_1803",NA
"Recordings/dubu.wav","yes","d","b","u","yes","u","dubu","Training","alveolar","TrainingItems",1,72,172,62,NA,NA,NA,NA,NA,NA,NA,NA,NA,NA,43,FALSE,19,60.897689424,NA,"American English","VSH_Exp2","2016_Mar_23_1803",NA
"Recordings/vavi.wav","yes","v","v","a","no","i","vavi","Training","bilabial","TrainingItems",1,73,173,20,NA,NA,NA,NA,NA,NA,NA,NA,NA,NA,43,FALSE,19,60.897689424,NA,"American English","VSH_Exp2","2016_Mar_23_1803",NA
"Recordings/bibi.wav","yes","b","b","i","yes","i","bibi","Training","bilabial","TrainingItems",1,74,174,33,NA,NA,NA,NA,NA,NA,NA,NA,NA,NA,43,FALSE,19,60.897689424,NA,"American English","VSH_Exp2","2016_Mar_23_1803",NA
"Recordings/dibu.wav","yes","d","b","i","yes","u","dibu","Training","alveolar","TrainingItems",1,75,175,41,NA,NA,NA,NA,NA,NA,NA,NA,NA,NA,43,FALSE,19,60.897689424,NA,"American English","VSH_Exp2","2016_Mar_23_1803",NA
"Recordings/badu.wav","yes","b","d","a","yes","u","badu","Training","bilabial","TrainingItems",1,76,176,40,NA,NA,NA,NA,NA,NA,NA,NA,NA,NA,43,FALSE,19,60.897689424,NA,"American English","VSH_Exp2","2016_Mar_23_1803",NA
"Recordings/sufi.wav","no","s","f","u","no","i","sufi","Training","alveolar","TrainingItems",1,77,177,28,NA,NA,NA,NA,NA,NA,NA,NA,NA,NA,43,FALSE,19,60.897689424,NA,"American English","VSH_Exp2","2016_Mar_23_1803",NA
"Recordings/bubi.wav","yes","b","b","u","yes","i","bubi","Training","bilabial","TrainingItems",1,78,178,94,NA,NA,NA,NA,NA,NA,NA,NA,NA,NA,43,FALSE,19,60.897689424,NA,"American English","VSH_Exp2","2016_Mar_23_1803",NA
"Recordings/fufu.wav","no","f","f","u","no","u","fufu","Training","bilabial","TrainingItems",1,79,179,12,NA,NA,NA,NA,NA,NA,NA,NA,NA,NA,43,FALSE,19,60.897689424,NA,"American English","VSH_Exp2","2016_Mar_23_1803",NA
"Recordings/viza.wav","yes","v","z","i","no","a","viza","Training","bilabial","TrainingItems",1,80,180,84,NA,NA,NA,NA,NA,NA,NA,NA,NA,NA,43,FALSE,19,60.897689424,NA,"American English","VSH_Exp2","2016_Mar_23_1803",NA
"Recordings/vuvu.wav","yes","v","v","u","no","u","vuvu","Training","bilabial","TrainingItems",1,81,181,35,NA,NA,NA,NA,NA,NA,NA,NA,NA,NA,43,FALSE,19,60.897689424,NA,"American English","VSH_Exp2","2016_Mar_23_1803",NA
"Recordings/badi.wav","yes","b","d","a","yes","i","badi","Training","bilabial","TrainingItems",1,82,182,61,NA,NA,NA,NA,NA,NA,NA,NA,NA,NA,43,FALSE,19,60.897689424,NA,"American English","VSH_Exp2","2016_Mar_23_1803",NA
"Recordings/fusi.wav","no","f","s","u","no","i","fusi","Training","bilabial","TrainingItems",1,83,183,17,NA,NA,NA,NA,NA,NA,NA,NA,NA,NA,43,FALSE,19,60.897689424,NA,"American English","VSH_Exp2","2016_Mar_23_1803",NA
"Recordings/fasa.wav","no","f","s","a","no","a","fasa","Training","bilabial","TrainingItems",1,84,184,82,NA,NA,NA,NA,NA,NA,NA,NA,NA,NA,43,FALSE,19,60.897689424,NA,"American English","VSH_Exp2","2016_Mar_23_1803",NA
"Recordings/bida.wav","yes","b","d","i","yes","a","bida","Training","bilabial","TrainingItems",1,85,185,44,NA,NA,NA,NA,NA,NA,NA,NA,NA,NA,43,FALSE,19,60.897689424,NA,"American English","VSH_Exp2","2016_Mar_23_1803",NA
"Recordings/zizu.wav","yes","z","z","i","no","u","zizu","Training","alveolar","TrainingItems",1,86,186,67,NA,NA,NA,NA,NA,NA,NA,NA,NA,NA,43,FALSE,19,60.897689424,NA,"American English","VSH_Exp2","2016_Mar_23_1803",NA
"Recordings/fufa.wav","no","f","f","u","no","a","fufa","Training","bilabial","TrainingItems",1,87,187,91,NA,NA,NA,NA,NA,NA,NA,NA,NA,NA,43,FALSE,19,60.897689424,NA,"American English","VSH_Exp2","2016_Mar_23_1803",NA
"Recordings/titi.wav","no","t","t","i","yes","i","titi","Training","alveolar","TrainingItems",1,88,188,65,NA,NA,NA,NA,NA,NA,NA,NA,NA,NA,43,FALSE,19,60.897689424,NA,"American English","VSH_Exp2","2016_Mar_23_1803",NA
"Recordings/diba.wav","yes","d","b","i","yes","a","diba","Training","alveolar","TrainingItems",1,89,189,70,NA,NA,NA,NA,NA,NA,NA,NA,NA,NA,43,FALSE,19,60.897689424,NA,"American English","VSH_Exp2","2016_Mar_23_1803",NA
"Recordings/buba.wav","yes","b","b","u","yes","a","buba","Training","bilabial","TrainingItems",1,90,190,22,NA,NA,NA,NA,NA,NA,NA,NA,NA,NA,43,FALSE,19,60.897689424,NA,"American English","VSH_Exp2","2016_Mar_23_1803",NA
"Recordings/dubi.wav","yes","d","b","u","yes","i","dubi","Training","alveolar","TrainingItems",1,91,191,76,NA,NA,NA,NA,NA,NA,NA,NA,NA,NA,43,FALSE,19,60.897689424,NA,"American English","VSH_Exp2","2016_Mar_23_1803",NA
"Recordings/fusu.wav","no","f","s","u","no","u","fusu","Training","bilabial","TrainingItems",1,92,192,16,NA,NA,NA,NA,NA,NA,NA,NA,NA,NA,43,FALSE,19,60.897689424,NA,"American English","VSH_Exp2","2016_Mar_23_1803",NA
"Recordings/duba.wav","yes","d","b","u","yes","a","duba","Training","alveolar","TrainingItems",1,93,193,39,NA,NA,NA,NA,NA,NA,NA,NA,NA,NA,43,FALSE,19,60.897689424,NA,"American English","VSH_Exp2","2016_Mar_23_1803",NA
"Recordings/dida.wav","yes","d","d","i","yes","a","dida","Training","alveolar","TrainingItems",1,94,194,98,NA,NA,NA,NA,NA,NA,NA,NA,NA,NA,43,FALSE,19,60.897689424,NA,"American English","VSH_Exp2","2016_Mar_23_1803",NA
"Recordings/fisi.wav","no","f","s","i","no","i","fisi","Training","bilabial","TrainingItems",1,95,195,59,NA,NA,NA,NA,NA,NA,NA,NA,NA,NA,43,FALSE,19,60.897689424,NA,"American English","VSH_Exp2","2016_Mar_23_1803",NA
"Recordings/papi.wav","no","p","p","a","yes","i","papi","Training","bilabial","TrainingItems",1,96,196,49,NA,NA,NA,NA,NA,NA,NA,NA,NA,NA,43,FALSE,19,60.897689424,NA,"American English","VSH_Exp2","2016_Mar_23_1803",NA
"Recordings/ziva.wav","yes","z","v","i","no","a","ziva","Training","alveolar","TrainingItems",1,97,197,73,NA,NA,NA,NA,NA,NA,NA,NA,NA,NA,43,FALSE,19,60.897689424,NA,"American English","VSH_Exp2","2016_Mar_23_1803",NA
"Recordings/bubu.wav","yes","b","b","u","yes","u","bubu","Training","bilabial","TrainingItems",1,98,198,51,NA,NA,NA,NA,NA,NA,NA,NA,NA,NA,43,FALSE,19,60.897689424,NA,"American English","VSH_Exp2","2016_Mar_23_1803",NA
"Recordings/susi.wav","no","s","s","u","no","i","susi","Training","alveolar","TrainingItems",1,99,199,92,NA,NA,NA,NA,NA,NA,NA,NA,NA,NA,43,FALSE,19,60.897689424,NA,"American English","VSH_Exp2","2016_Mar_23_1803",NA
NA,NA,NA,NA,NA,NA,NA,NA,NA,NA,NA,NA,NA,NA,NA,NA,NA,NA,NA,NA,NA,"space",2.95574212074,NA,NA,43,FALSE,19,60.897689424,NA,"American English","VSH_Exp2","2016_Mar_23_1803",NA
"Recordings/dasu.wav","yes","d","s","a","yes","u","dasu","Controls","alveolar","NoPatternControls",NA,NA,NA,NA,0,0,0,55,NA,NA,NA,NA,"Yes",2.521,43,FALSE,19,60.897689424,NA,"American English","VSH_Exp2","2016_Mar_23_1803",NA
"Recordings/zuvi.wav","yes","z","v","u","no","i","zuvi","Test","alveolar","OldTestStimuli",NA,NA,NA,NA,0,1,1,3,NA,NA,NA,NA,"Yes",3.139,43,FALSE,19,60.897689424,NA,"American English","VSH_Exp2","2016_Mar_23_1803",NA
"Recordings/vizi.wav","yes","v","z","i","no","i","vizi","Test","bilabial","OldTestStimuli",NA,NA,NA,NA,0,2,2,8,NA,NA,NA,NA,"Yes",0.837,43,FALSE,19,60.897689424,NA,"American English","VSH_Exp2","2016_Mar_23_1803",NA
"Recordings/safa.wav","no","s","f","a","no","a","safa","Test","alveolar","NewWordTestStimuli",NA,NA,NA,NA,0,3,3,26,NA,NA,NA,NA,"No",1.487,43,FALSE,19,60.897689424,NA,"American English","VSH_Exp2","2016_Mar_23_1803",NA
"Recordings/bitu.wav","yes","b","t","i","yes","u","bitu","Controls","bilabial","StopControls",NA,NA,NA,NA,0,4,4,31,NA,NA,NA,NA,"No",1.137,43,FALSE,19,60.897689424,NA,"American English","VSH_Exp2","2016_Mar_23_1803",NA
"Recordings/fasu.wav","no","f","s","a","no","u","fasu","Test","bilabial","NewWordTestStimuli",NA,NA,NA,NA,0,5,5,25,NA,NA,NA,NA,"Yes",1.385,43,FALSE,19,60.897689424,NA,"American English","VSH_Exp2","2016_Mar_23_1803",NA
"Recordings/tipi.wav","no","t","p","i","yes","i","tipi","Test","alveolar","NewConsTestStimuli",NA,NA,NA,NA,0,6,6,12,NA,NA,NA,NA,"Yes",0.752,43,FALSE,19,60.897689424,NA,"American English","VSH_Exp2","2016_Mar_23_1803",NA
"Recordings/busa.wav","yes","b","s","u","yes","a","busa","Controls","bilabial","NoPatternControls",NA,NA,NA,NA,0,7,7,51,NA,NA,NA,NA,"No",1.137,43,FALSE,19,60.897689424,NA,"American English","VSH_Exp2","2016_Mar_23_1803",NA
"Recordings/pati.wav","no","p","t","a","yes","i","pati","Test","bilabial","NewConsTestStimuli",NA,NA,NA,NA,0,8,8,11,NA,NA,NA,NA,"No",1.086,43,FALSE,19,60.897689424,NA,"American English","VSH_Exp2","2016_Mar_23_1803",NA
"Recordings/dipi.wav","yes","d","p","i","yes","i","dipi","Controls","alveolar","StopControls",NA,NA,NA,NA,0,9,9,37,NA,NA,NA,NA,"No",1.105,43,FALSE,19,60.897689424,NA,"American English","VSH_Exp2","2016_Mar_23_1803",NA
"Recordings/buti.wav","yes","b","t","u","yes","i","buti","Controls","bilabial","StopControls",NA,NA,NA,NA,0,10,10,33,NA,NA,NA,NA,"Yes",1.17,43,FALSE,19,60.897689424,NA,"American English","VSH_Exp2","2016_Mar_23_1803",NA
"Recordings/subu.wav","no","s","b","u","no","u","subu","Controls","alveolar","NoPatternControls",NA,NA,NA,NA,0,11,11,50,NA,NA,NA,NA,"Yes",1.604,43,FALSE,19,60.897689424,NA,"American English","VSH_Exp2","2016_Mar_23_1803",NA
"Recordings/suti.wav","no","s","t","u","no","i","suti","Controls","alveolar","VoicingControls",NA,NA,NA,NA,0,12,12,44,NA,NA,NA,NA,"No",1.238,43,FALSE,19,60.897689424,NA,"American English","VSH_Exp2","2016_Mar_23_1803",NA
"Recordings/putu.wav","no","p","t","u","yes","u","putu","Test","bilabial","NewConsTestStimuli",NA,NA,NA,NA,0,13,13,19,NA,NA,NA,NA,"Yes",2.188,43,FALSE,19,60.897689424,NA,"American English","VSH_Exp2","2016_Mar_23_1803",NA
"Recordings/puti.wav","no","p","t","u","yes","i","puti","Test","bilabial","NewConsTestStimuli",NA,NA,NA,NA,0,14,14,16,NA,NA,NA,NA,"No",1.202,43,FALSE,19,60.897689424,NA,"American English","VSH_Exp2","2016_Mar_23_1803",NA
"Recordings/zida.wav","yes","z","d","i","no","a","zida","Controls","alveolar","VoicingControls",NA,NA,NA,NA,0,15,15,42,NA,NA,NA,NA,"Yes",1.187,43,FALSE,19,60.897689424,NA,"American English","VSH_Exp2","2016_Mar_23_1803",NA
"Recordings/sabu.wav","no","s","b","a","no","u","sabu","Controls","alveolar","NoPatternControls",NA,NA,NA,NA,0,16,16,58,NA,NA,NA,NA,"No",1.186,43,FALSE,19,60.897689424,NA,"American English","VSH_Exp2","2016_Mar_23_1803",NA
"Recordings/bizu.wav","yes","b","z","i","yes","u","bizu","Controls","bilabial","VoicingControls",NA,NA,NA,NA,0,17,17,41,NA,NA,NA,NA,"Yes",0.936,43,FALSE,19,60.897689424,NA,"American English","VSH_Exp2","2016_Mar_23_1803",NA
"Recordings/sisa.wav","no","s","s","i","no","a","sisa","Test","alveolar","OldTestStimuli",NA,NA,NA,NA,0,18,18,9,NA,NA,NA,NA,"Yes",0.87,43,FALSE,19,60.897689424,NA,"American English","VSH_Exp2","2016_Mar_23_1803",NA
"Recordings/zafi.wav","yes","z","f","a","no","i","zafi","Controls","alveolar","StopControls",NA,NA,NA,NA,0,19,19,39,NA,NA,NA,NA,"Yes",1.669,43,FALSE,19,60.897689424,NA,"American English","VSH_Exp2","2016_Mar_23_1803",NA
"Recordings/zisa.wav","yes","z","s","i","no","a","zisa","Controls","alveolar","StopControls",NA,NA,NA,NA,0,20,20,32,NA,NA,NA,NA,"Yes",1.554,43,FALSE,19,60.897689424,NA,"American English","VSH_Exp2","2016_Mar_23_1803",NA
"Recordings/buzi.wav","yes","b","z","u","yes","i","buzi","Controls","bilabial","VoicingControls",NA,NA,NA,NA,0,21,21,43,NA,NA,NA,NA,"No",2.621,43,FALSE,19,60.897689424,NA,"American English","VSH_Exp2","2016_Mar_23_1803",NA
"Recordings/tipu.wav","no","t","p","i","yes","u","tipu","Test","alveolar","NewConsTestStimuli",NA,NA,NA,NA,0,22,22,17,NA,NA,NA,NA,"No",1.17,43,FALSE,19,60.897689424,NA,"American English","VSH_Exp2","2016_Mar_23_1803",NA
"Recordings/data.wav","yes","d","t","a","yes","a","data","Controls","alveolar","StopControls",NA,NA,NA,NA,0,23,23,35,NA,NA,NA,NA,"No",0.971,43,FALSE,19,60.897689424,NA,"American English","VSH_Exp2","2016_Mar_23_1803",NA
"Recordings/tapu.wav","no","t","p","a","yes","u","tapu","Test","alveolar","NewConsTestStimuli",NA,NA,NA,NA,0,24,24,13,NA,NA,NA,NA,"No",1.037,43,FALSE,19,60.897689424,NA,"American English","VSH_Exp2","2016_Mar_23_1803",NA
"Recordings/zivu.wav","yes","z","v","i","no","u","zivu","Test","alveolar","OldTestStimuli",NA,NA,NA,NA,0,25,25,2,NA,NA,NA,NA,"Yes",1.07,43,FALSE,19,60.897689424,NA,"American English","VSH_Exp2","2016_Mar_23_1803",NA
"Recordings/dabu.wav","yes","d","b","a","yes","u","dabu","Test","alveolar","NewWordTestStimuli",NA,NA,NA,NA,0,26,26,21,NA,NA,NA,NA,"Yes",1.62,43,FALSE,19,60.897689424,NA,"American English","VSH_Exp2","2016_Mar_23_1803",NA
"Recordings/divi.wav","yes","d","v","i","yes","i","divi","Controls","alveolar","VoicingControls",NA,NA,NA,NA,0,27,27,47,NA,NA,NA,NA,"Yes",0.753,43,FALSE,19,60.897689424,NA,"American English","VSH_Exp2","2016_Mar_23_1803",NA
"Recordings/pita.wav","no","p","t","i","yes","a","pita","Test","bilabial","NewConsTestStimuli",NA,NA,NA,NA,0,28,28,15,NA,NA,NA,NA,"No",0.887,43,FALSE,19,60.897689424,NA,"American English","VSH_Exp2","2016_Mar_23_1803",NA
"Recordings/zipi.wav","yes","z","p","i","no","i","zipi","Controls","alveolar","NoPatternControls",NA,NA,NA,NA,0,29,29,59,NA,NA,NA,NA,"Yes",1.154,43,FALSE,19,60.897689424,NA,"American English","VSH_Exp2","2016_Mar_23_1803",NA
"Recordings/satu.wav","no","s","t","a","no","u","satu","Controls","alveolar","VoicingControls",NA,NA,NA,NA,0,30,30,48,NA,NA,NA,NA,"Yes",0.986,43,FALSE,19,60.897689424,NA,"American English","VSH_Exp2","2016_Mar_23_1803",NA
"Recordings/suza.wav","no","s","z","u","no","a","suza","Controls","alveolar","StopControls",NA,NA,NA,NA,0,31,31,34,NA,NA,NA,NA,"Yes",0.785,43,FALSE,19,60.897689424,NA,"American English","VSH_Exp2","2016_Mar_23_1803",NA
"Recordings/fufi.wav","no","f","f","u","no","i","fufi","Test","bilabial","OldTestStimuli",NA,NA,NA,NA,0,32,32,6,NA,NA,NA,NA,"Yes",0.803,43,FALSE,19,60.897689424,NA,"American English","VSH_Exp2","2016_Mar_23_1803",NA
"Recordings/budi.wav","yes","b","d","u","yes","i","budi","Test","bilabial","OldTestStimuli",NA,NA,NA,NA,0,33,33,0,NA,NA,NA,NA,"Yes",0.787,43,FALSE,19,60.897689424,NA,"American English","VSH_Exp2","2016_Mar_23_1803",NA
"Recordings/dafa.wav","yes","d","f","a","yes","a","dafa","Controls","alveolar","NoPatternControls",NA,NA,NA,NA,0,34,34,57,NA,NA,NA,NA,"No",1.021,43,FALSE,19,60.897689424,NA,"American English","VSH_Exp2","2016_Mar_23_1803",NA
"Recordings/tupu.wav","no","t","p","u","yes","u","tupu","Test","alveolar","NewConsTestStimuli",NA,NA,NA,NA,0,35,35,18,NA,NA,NA,NA,"No",0.937,43,FALSE,19,60.897689424,NA,"American English","VSH_Exp2","2016_Mar_23_1803",NA
"Recordings/sazu.wav","no","s","z","a","no","u","sazu","Controls","alveolar","StopControls",NA,NA,NA,NA,0,36,36,30,NA,NA,NA,NA,"Yes",0.971,43,FALSE,19,60.897689424,NA,"American English","VSH_Exp2","2016_Mar_23_1803",NA
"Recordings/dudi.wav","yes","d","d","u","yes","i","dudi","Test","alveolar","OldTestStimuli",NA,NA,NA,NA,0,37,37,1,NA,NA,NA,NA,"Yes",0.887,43,FALSE,19,60.897689424,NA,"American English","VSH_Exp2","2016_Mar_23_1803",NA
"Recordings/fafi.wav","no","f","f","a","no","i","fafi","Test","bilabial","OldTestStimuli",NA,NA,NA,NA,0,38,38,7,NA,NA,NA,NA,"Yes",0.735,43,FALSE,19,60.897689424,NA,"American English","VSH_Exp2","2016_Mar_23_1803",NA
"Recordings/zitu.wav","yes","z","t","i","no","u","zitu","Controls","alveolar","NoPatternControls",NA,NA,NA,NA,0,39,39,52,NA,NA,NA,NA,"No",2.587,43,FALSE,19,60.897689424,NA,"American English","VSH_Exp2","2016_Mar_23_1803",NA
"Recordings/pasi.wav","no","p","s","a","yes","i","pasi","Controls","bilabial","VoicingControls",NA,NA,NA,NA,0,40,40,46,NA,NA,NA,NA,"No",1.22,43,FALSE,19,60.897689424,NA,"American English","VSH_Exp2","2016_Mar_23_1803",NA
"Recordings/bubu.wav","yes","b","b","u","yes","u","bubu","Test","bilabial","OldTestStimuli",NA,NA,NA,NA,0,41,41,4,NA,NA,NA,NA,"Yes",1.188,43,FALSE,19,60.897689424,NA,"American English","VSH_Exp2","2016_Mar_23_1803",NA
"Recordings/basa.wav","yes","b","s","a","yes","a","basa","Controls","bilabial","NoPatternControls",NA,NA,NA,NA,0,42,42,53,NA,NA,NA,NA,"Yes",0.803,43,FALSE,19,60.897689424,NA,"American English","VSH_Exp2","2016_Mar_23_1803",NA
"Recordings/piza.wav","no","p","z","i","yes","a","piza","Controls","bilabial","NoPatternControls",NA,NA,NA,NA,0,43,43,56,NA,NA,NA,NA,"No",1.069,43,FALSE,19,60.897689424,NA,"American English","VSH_Exp2","2016_Mar_23_1803",NA
"Recordings/tupi.wav","no","t","p","u","yes","i","tupi","Test","alveolar","NewConsTestStimuli",NA,NA,NA,NA,0,44,44,10,NA,NA,NA,NA,"No",1.939,43,FALSE,19,60.897689424,NA,"American English","VSH_Exp2","2016_Mar_23_1803",NA
"Recordings/zabi.wav","yes","z","b","a","no","i","zabi","Controls","alveolar","VoicingControls",NA,NA,NA,NA,0,45,45,49,NA,NA,NA,NA,"Yes",1.103,43,FALSE,19,60.897689424,NA,"American English","VSH_Exp2","2016_Mar_23_1803",NA
"Recordings/fisa.wav","no","f","s","i","no","a","fisa","Test","bilabial","NewWordTestStimuli",NA,NA,NA,NA,0,46,46,27,NA,NA,NA,NA,"Yes",1.62,43,FALSE,19,60.897689424,NA,"American English","VSH_Exp2","2016_Mar_23_1803",NA
"Recordings/sidu.wav","no","s","d","i","no","u","sidu","Controls","alveolar","NoPatternControls",NA,NA,NA,NA,0,47,47,54,NA,NA,NA,NA,"No",1.672,43,FALSE,19,60.897689424,NA,"American English","VSH_Exp2","2016_Mar_23_1803",NA
"Recordings/puta.wav","no","p","t","u","yes","a","puta","Test","bilabial","NewConsTestStimuli",NA,NA,NA,NA,0,48,48,14,NA,NA,NA,NA,"No",0.786,43,FALSE,19,60.897689424,NA,"American English","VSH_Exp2","2016_Mar_23_1803",NA
"Recordings/daba.wav","yes","d","b","a","yes","a","daba","Test","alveolar","NewWordTestStimuli",NA,NA,NA,NA,0,49,49,23,NA,NA,NA,NA,"Yes",1.221,43,FALSE,19,60.897689424,NA,"American English","VSH_Exp2","2016_Mar_23_1803",NA
"Recordings/tuti.wav","no","t","t","u","yes","i","tuti","Test","alveolar","NewWordTestStimuli",NA,NA,NA,NA,0,50,50,20,NA,NA,NA,NA,"Yes",0.97,43,FALSE,19,60.897689424,NA,"American English","VSH_Exp2","2016_Mar_23_1803",NA
"Recordings/sazi.wav","no","s","z","a","no","i","sazi","Controls","alveolar","StopControls",NA,NA,NA,NA,0,51,51,38,NA,NA,NA,NA,"Yes",1.17,43,FALSE,19,60.897689424,NA,"American English","VSH_Exp2","2016_Mar_23_1803",NA
"Recordings/sifa.wav","no","s","f","i","no","a","sifa","Test","alveolar","NewWordTestStimuli",NA,NA,NA,NA,0,52,52,24,NA,NA,NA,NA,"No",1.071,43,FALSE,19,60.897689424,NA,"American English","VSH_Exp2","2016_Mar_23_1803",NA
"Recordings/pabu.wav","no","p","b","a","yes","u","pabu","Controls","bilabial","StopControls",NA,NA,NA,NA,0,53,53,36,NA,NA,NA,NA,"No",1.471,43,FALSE,19,60.897689424,NA,"American English","VSH_Exp2","2016_Mar_23_1803",NA
"Recordings/tutu.wav","no","t","t","u","yes","u","tutu","Test","alveolar","NewWordTestStimuli",NA,NA,NA,NA,0,54,54,29,NA,NA,NA,NA,"No",1.388,43,FALSE,19,60.897689424,NA,"American English","VSH_Exp2","2016_Mar_23_1803",NA
"Recordings/vizu.wav","yes","v","z","i","no","u","vizu","Test","bilabial","NewWordTestStimuli",NA,NA,NA,NA,0,55,55,28,NA,NA,NA,NA,"Yes",0.937,43,FALSE,19,60.897689424,NA,"American English","VSH_Exp2","2016_Mar_23_1803",NA
"Recordings/buba.wav","yes","b","b","u","yes","a","buba","Test","bilabial","OldTestStimuli",NA,NA,NA,NA,0,56,56,5,NA,NA,NA,NA,"Yes",1.053,43,FALSE,19,60.897689424,NA,"American English","VSH_Exp2","2016_Mar_23_1803",NA
"Recordings/daza.wav","yes","d","z","a","yes","a","daza","Controls","alveolar","VoicingControls",NA,NA,NA,NA,0,57,57,45,NA,NA,NA,NA,"Yes",1.669,43,FALSE,19,60.897689424,NA,"American English","VSH_Exp2","2016_Mar_23_1803",NA
"Recordings/sipa.wav","no","s","p","i","no","a","sipa","Controls","alveolar","VoicingControls",NA,NA,NA,NA,0,58,58,40,NA,NA,NA,NA,"Yes",1.753,43,FALSE,19,60.897689424,NA,"American English","VSH_Exp2","2016_Mar_23_1803",NA
"Recordings/vuza.wav","yes","v","z","u","no","a","vuza","Test","bilabial","NewWordTestStimuli",NA,NA,NA,NA,0,59,59,22,NA,NA,NA,NA,"Yes",0.753,43,FALSE,19,60.897689424,NA,"American English","VSH_Exp2","2016_Mar_23_1803",NA
