"SOUND","VOICING","SEGMENT","SEGMENT3","SEGMENT2","STOP","SEGMENT4","STIMULUS","GENERAL_TYPE","PLACE","TYPE","trials.thisRepN","trials.thisTrialN","trials.thisN","trials.thisIndex","trials_2.thisRepN","trials_2.thisTrialN","trials_2.thisN","trials_2.thisIndex","SpaceBar.keys","SpaceBar.rt","key_resp_2.keys","key_resp_2.rt","rating.response","rating.rt","participant","Gender","Age","frameRate","OtherLanguages","NativeLanguage","expName","date","X34"
NA,NA,NA,NA,NA,NA,NA,NA,NA,NA,NA,NA,NA,NA,NA,NA,NA,NA,NA,"space",0.383553981781,NA,NA,NA,NA,44,FALSE,20,59.9107545865,NA,"American English","VSH_Exp2","2016_Mar_23_1803",NA
"Recordings/tapa.wav","no","t","p","a","yes","a","tapa","Training","alveolar","TrainingItems",0,0,0,70,NA,NA,NA,NA,NA,NA,NA,NA,NA,NA,44,FALSE,20,59.9107545865,NA,"American English","VSH_Exp2","2016_Mar_23_1803",NA
"Recordings/tuta.wav","no","t","t","u","yes","a","tuta","Training","alveolar","TrainingItems",0,1,1,38,NA,NA,NA,NA,NA,NA,NA,NA,NA,NA,44,FALSE,20,59.9107545865,NA,"American English","VSH_Exp2","2016_Mar_23_1803",NA
"Recordings/baba.wav","yes","b","b","a","yes","a","baba","Training","bilabial","TrainingItems",0,2,2,78,NA,NA,NA,NA,NA,NA,NA,NA,NA,NA,44,FALSE,20,59.9107545865,NA,"American English","VSH_Exp2","2016_Mar_23_1803",NA
"Recordings/pitu.wav","no","p","t","i","yes","u","pitu","Training","bilabial","TrainingItems",0,3,3,71,NA,NA,NA,NA,NA,NA,NA,NA,NA,NA,44,FALSE,20,59.9107545865,NA,"American English","VSH_Exp2","2016_Mar_23_1803",NA
"Recordings/tapu.wav","no","t","p","a","yes","u","tapu","Training","alveolar","TrainingItems",0,4,4,22,NA,NA,NA,NA,NA,NA,NA,NA,NA,NA,44,FALSE,20,59.9107545865,NA,"American English","VSH_Exp2","2016_Mar_23_1803",NA
"Recordings/titu.wav","no","t","t","i","yes","u","titu","Training","alveolar","TrainingItems",0,5,5,52,NA,NA,NA,NA,NA,NA,NA,NA,NA,NA,44,FALSE,20,59.9107545865,NA,"American English","VSH_Exp2","2016_Mar_23_1803",NA
"Recordings/susa.wav","no","s","s","u","no","a","susa","Training","alveolar","TrainingItems",0,6,6,82,NA,NA,NA,NA,NA,NA,NA,NA,NA,NA,44,FALSE,20,59.9107545865,NA,"American English","VSH_Exp2","2016_Mar_23_1803",NA
"Recordings/vivi.wav","yes","v","v","i","no","i","vivi","Training","bilabial","TrainingItems",0,7,7,68,NA,NA,NA,NA,NA,NA,NA,NA,NA,NA,44,FALSE,20,59.9107545865,NA,"American English","VSH_Exp2","2016_Mar_23_1803",NA
"Recordings/budu.wav","yes","b","d","u","yes","u","budu","Training","bilabial","TrainingItems",0,8,8,58,NA,NA,NA,NA,NA,NA,NA,NA,NA,NA,44,FALSE,20,59.9107545865,NA,"American English","VSH_Exp2","2016_Mar_23_1803",NA
"Recordings/sifu.wav","no","s","f","i","no","u","sifu","Training","alveolar","TrainingItems",0,9,9,10,NA,NA,NA,NA,NA,NA,NA,NA,NA,NA,44,FALSE,20,59.9107545865,NA,"American English","VSH_Exp2","2016_Mar_23_1803",NA
"Recordings/dibu.wav","yes","d","b","i","yes","u","dibu","Training","alveolar","TrainingItems",0,10,10,24,NA,NA,NA,NA,NA,NA,NA,NA,NA,NA,44,FALSE,20,59.9107545865,NA,"American English","VSH_Exp2","2016_Mar_23_1803",NA
"Recordings/dubu.wav","yes","d","b","u","yes","u","dubu","Training","alveolar","TrainingItems",0,11,11,8,NA,NA,NA,NA,NA,NA,NA,NA,NA,NA,44,FALSE,20,59.9107545865,NA,"American English","VSH_Exp2","2016_Mar_23_1803",NA
"Recordings/puta.wav","no","p","t","u","yes","a","puta","Training","bilabial","TrainingItems",0,12,12,33,NA,NA,NA,NA,NA,NA,NA,NA,NA,NA,44,FALSE,20,59.9107545865,NA,"American English","VSH_Exp2","2016_Mar_23_1803",NA
"Recordings/vivu.wav","yes","v","v","i","no","u","vivu","Training","bilabial","TrainingItems",0,13,13,67,NA,NA,NA,NA,NA,NA,NA,NA,NA,NA,44,FALSE,20,59.9107545865,NA,"American English","VSH_Exp2","2016_Mar_23_1803",NA
"Recordings/dibi.wav","yes","d","b","i","yes","i","dibi","Training","alveolar","TrainingItems",0,14,14,59,NA,NA,NA,NA,NA,NA,NA,NA,NA,NA,44,FALSE,20,59.9107545865,NA,"American English","VSH_Exp2","2016_Mar_23_1803",NA
"Recordings/sisi.wav","no","s","s","i","no","i","sisi","Training","alveolar","TrainingItems",0,15,15,39,NA,NA,NA,NA,NA,NA,NA,NA,NA,NA,44,FALSE,20,59.9107545865,NA,"American English","VSH_Exp2","2016_Mar_23_1803",NA
"Recordings/dabi.wav","yes","d","b","a","yes","i","dabi","Training","alveolar","TrainingItems",0,16,16,79,NA,NA,NA,NA,NA,NA,NA,NA,NA,NA,44,FALSE,20,59.9107545865,NA,"American English","VSH_Exp2","2016_Mar_23_1803",NA
"Recordings/dadu.wav","yes","d","d","a","yes","u","dadu","Training","alveolar","TrainingItems",0,17,17,3,NA,NA,NA,NA,NA,NA,NA,NA,NA,NA,44,FALSE,20,59.9107545865,NA,"American English","VSH_Exp2","2016_Mar_23_1803",NA
"Recordings/fifi.wav","no","f","f","i","no","i","fifi","Training","bilabial","TrainingItems",0,18,18,87,NA,NA,NA,NA,NA,NA,NA,NA,NA,NA,44,FALSE,20,59.9107545865,NA,"American English","VSH_Exp2","2016_Mar_23_1803",NA
"Recordings/sifa.wav","no","s","f","i","no","a","sifa","Training","alveolar","TrainingItems",0,19,19,14,NA,NA,NA,NA,NA,NA,NA,NA,NA,NA,44,FALSE,20,59.9107545865,NA,"American English","VSH_Exp2","2016_Mar_23_1803",NA
"Recordings/fisa.wav","no","f","s","i","no","a","fisa","Training","bilabial","TrainingItems",0,20,20,72,NA,NA,NA,NA,NA,NA,NA,NA,NA,NA,44,FALSE,20,59.9107545865,NA,"American English","VSH_Exp2","2016_Mar_23_1803",NA
"Recordings/badu.wav","yes","b","d","a","yes","u","badu","Training","bilabial","TrainingItems",0,21,21,1,NA,NA,NA,NA,NA,NA,NA,NA,NA,NA,44,FALSE,20,59.9107545865,NA,"American English","VSH_Exp2","2016_Mar_23_1803",NA
"Recordings/dadi.wav","yes","d","d","a","yes","i","dadi","Training","alveolar","TrainingItems",0,22,22,16,NA,NA,NA,NA,NA,NA,NA,NA,NA,NA,44,FALSE,20,59.9107545865,NA,"American English","VSH_Exp2","2016_Mar_23_1803",NA
"Recordings/fifu.wav","no","f","f","i","no","u","fifu","Training","bilabial","TrainingItems",0,23,23,17,NA,NA,NA,NA,NA,NA,NA,NA,NA,NA,44,FALSE,20,59.9107545865,NA,"American English","VSH_Exp2","2016_Mar_23_1803",NA
"Recordings/tupi.wav","no","t","p","u","yes","i","tupi","Training","alveolar","TrainingItems",0,24,24,63,NA,NA,NA,NA,NA,NA,NA,NA,NA,NA,44,FALSE,20,59.9107545865,NA,"American English","VSH_Exp2","2016_Mar_23_1803",NA
"Recordings/pata.wav","no","p","t","a","yes","a","pata","Training","bilabial","TrainingItems",0,25,25,90,NA,NA,NA,NA,NA,NA,NA,NA,NA,NA,44,FALSE,20,59.9107545865,NA,"American English","VSH_Exp2","2016_Mar_23_1803",NA
"Recordings/papu.wav","no","p","p","a","yes","u","papu","Training","bilabial","TrainingItems",0,26,26,32,NA,NA,NA,NA,NA,NA,NA,NA,NA,NA,44,FALSE,20,59.9107545865,NA,"American English","VSH_Exp2","2016_Mar_23_1803",NA
"Recordings/zizu.wav","yes","z","z","i","no","u","zizu","Training","alveolar","TrainingItems",0,27,27,66,NA,NA,NA,NA,NA,NA,NA,NA,NA,NA,44,FALSE,20,59.9107545865,NA,"American English","VSH_Exp2","2016_Mar_23_1803",NA
"Recordings/fasi.wav","no","f","s","a","no","i","fasi","Training","bilabial","TrainingItems",0,28,28,2,NA,NA,NA,NA,NA,NA,NA,NA,NA,NA,44,FALSE,20,59.9107545865,NA,"American English","VSH_Exp2","2016_Mar_23_1803",NA
"Recordings/tupa.wav","no","t","p","u","yes","a","tupa","Training","alveolar","TrainingItems",0,29,29,81,NA,NA,NA,NA,NA,NA,NA,NA,NA,NA,44,FALSE,20,59.9107545865,NA,"American English","VSH_Exp2","2016_Mar_23_1803",NA
"Recordings/bibi.wav","yes","b","b","i","yes","i","bibi","Training","bilabial","TrainingItems",0,30,30,6,NA,NA,NA,NA,NA,NA,NA,NA,NA,NA,44,FALSE,20,59.9107545865,NA,"American English","VSH_Exp2","2016_Mar_23_1803",NA
"Recordings/susu.wav","no","s","s","u","no","u","susu","Training","alveolar","TrainingItems",0,31,31,49,NA,NA,NA,NA,NA,NA,NA,NA,NA,NA,44,FALSE,20,59.9107545865,NA,"American English","VSH_Exp2","2016_Mar_23_1803",NA
"Recordings/sisu.wav","no","s","s","i","no","u","sisu","Training","alveolar","TrainingItems",0,32,32,92,NA,NA,NA,NA,NA,NA,NA,NA,NA,NA,44,FALSE,20,59.9107545865,NA,"American English","VSH_Exp2","2016_Mar_23_1803",NA
"Recordings/pupi.wav","no","p","p","u","yes","i","pupi","Training","bilabial","TrainingItems",0,33,33,73,NA,NA,NA,NA,NA,NA,NA,NA,NA,NA,44,FALSE,20,59.9107545865,NA,"American English","VSH_Exp2","2016_Mar_23_1803",NA
"Recordings/pupa.wav","no","p","p","u","yes","a","pupa","Training","bilabial","TrainingItems",0,34,34,43,NA,NA,NA,NA,NA,NA,NA,NA,NA,NA,44,FALSE,20,59.9107545865,NA,"American English","VSH_Exp2","2016_Mar_23_1803",NA
"Recordings/fusa.wav","no","f","s","u","no","a","fusa","Training","bilabial","TrainingItems",0,35,35,53,NA,NA,NA,NA,NA,NA,NA,NA,NA,NA,44,FALSE,20,59.9107545865,NA,"American English","VSH_Exp2","2016_Mar_23_1803",NA
"Recordings/ziza.wav","yes","z","z","i","no","a","ziza","Training","alveolar","TrainingItems",0,36,36,47,NA,NA,NA,NA,NA,NA,NA,NA,NA,NA,44,FALSE,20,59.9107545865,NA,"American English","VSH_Exp2","2016_Mar_23_1803",NA
"Recordings/safu.wav","no","s","f","a","no","u","safu","Training","alveolar","TrainingItems",0,37,37,7,NA,NA,NA,NA,NA,NA,NA,NA,NA,NA,44,FALSE,20,59.9107545865,NA,"American English","VSH_Exp2","2016_Mar_23_1803",NA
"Recordings/viva.wav","yes","v","v","i","no","a","viva","Training","bilabial","TrainingItems",0,38,38,31,NA,NA,NA,NA,NA,NA,NA,NA,NA,NA,44,FALSE,20,59.9107545865,NA,"American English","VSH_Exp2","2016_Mar_23_1803",NA
"Recordings/duda.wav","yes","d","d","u","yes","a","duda","Training","alveolar","TrainingItems",0,39,39,40,NA,NA,NA,NA,NA,NA,NA,NA,NA,NA,44,FALSE,20,59.9107545865,NA,"American English","VSH_Exp2","2016_Mar_23_1803",NA
"Recordings/fafa.wav","no","f","f","a","no","a","fafa","Training","bilabial","TrainingItems",0,40,40,36,NA,NA,NA,NA,NA,NA,NA,NA,NA,NA,44,FALSE,20,59.9107545865,NA,"American English","VSH_Exp2","2016_Mar_23_1803",NA
"Recordings/dida.wav","yes","d","d","i","yes","a","dida","Training","alveolar","TrainingItems",0,41,41,29,NA,NA,NA,NA,NA,NA,NA,NA,NA,NA,44,FALSE,20,59.9107545865,NA,"American English","VSH_Exp2","2016_Mar_23_1803",NA
"Recordings/puti.wav","no","p","t","u","yes","i","puti","Training","bilabial","TrainingItems",0,42,42,41,NA,NA,NA,NA,NA,NA,NA,NA,NA,NA,44,FALSE,20,59.9107545865,NA,"American English","VSH_Exp2","2016_Mar_23_1803",NA
"Recordings/pita.wav","no","p","t","i","yes","a","pita","Training","bilabial","TrainingItems",0,43,43,97,NA,NA,NA,NA,NA,NA,NA,NA,NA,NA,44,FALSE,20,59.9107545865,NA,"American English","VSH_Exp2","2016_Mar_23_1803",NA
"Recordings/zizi.wav","yes","z","z","i","no","i","zizi","Training","alveolar","TrainingItems",0,44,44,35,NA,NA,NA,NA,NA,NA,NA,NA,NA,NA,44,FALSE,20,59.9107545865,NA,"American English","VSH_Exp2","2016_Mar_23_1803",NA
"Recordings/didu.wav","yes","d","d","i","yes","u","didu","Training","alveolar","TrainingItems",0,45,45,42,NA,NA,NA,NA,NA,NA,NA,NA,NA,NA,44,FALSE,20,59.9107545865,NA,"American English","VSH_Exp2","2016_Mar_23_1803",NA
"Recordings/pipi.wav","no","p","p","i","yes","i","pipi","Training","bilabial","TrainingItems",0,46,46,76,NA,NA,NA,NA,NA,NA,NA,NA,NA,NA,44,FALSE,20,59.9107545865,NA,"American English","VSH_Exp2","2016_Mar_23_1803",NA
"Recordings/vavu.wav","yes","v","v","a","no","u","vavu","Training","bilabial","TrainingItems",0,47,47,25,NA,NA,NA,NA,NA,NA,NA,NA,NA,NA,44,FALSE,20,59.9107545865,NA,"American English","VSH_Exp2","2016_Mar_23_1803",NA
"Recordings/babu.wav","yes","b","b","a","yes","u","babu","Training","bilabial","TrainingItems",0,48,48,93,NA,NA,NA,NA,NA,NA,NA,NA,NA,NA,44,FALSE,20,59.9107545865,NA,"American English","VSH_Exp2","2016_Mar_23_1803",NA
"Recordings/buda.wav","yes","b","d","u","yes","a","buda","Training","bilabial","TrainingItems",0,49,49,99,NA,NA,NA,NA,NA,NA,NA,NA,NA,NA,44,FALSE,20,59.9107545865,NA,"American English","VSH_Exp2","2016_Mar_23_1803",NA
"Recordings/fisi.wav","no","f","s","i","no","i","fisi","Training","bilabial","TrainingItems",0,50,50,37,NA,NA,NA,NA,NA,NA,NA,NA,NA,NA,44,FALSE,20,59.9107545865,NA,"American English","VSH_Exp2","2016_Mar_23_1803",NA
"Recordings/tipu.wav","no","t","p","i","yes","u","tipu","Training","alveolar","TrainingItems",0,51,51,88,NA,NA,NA,NA,NA,NA,NA,NA,NA,NA,44,FALSE,20,59.9107545865,NA,"American English","VSH_Exp2","2016_Mar_23_1803",NA
"Recordings/fufi.wav","no","f","f","u","no","i","fufi","Training","bilabial","TrainingItems",0,52,52,69,NA,NA,NA,NA,NA,NA,NA,NA,NA,NA,44,FALSE,20,59.9107545865,NA,"American English","VSH_Exp2","2016_Mar_23_1803",NA
"Recordings/safi.wav","no","s","f","a","no","i","safi","Training","alveolar","TrainingItems",0,53,53,20,NA,NA,NA,NA,NA,NA,NA,NA,NA,NA,44,FALSE,20,59.9107545865,NA,"American English","VSH_Exp2","2016_Mar_23_1803",NA
"Recordings/sifi.wav","no","s","f","i","no","i","sifi","Training","alveolar","TrainingItems",0,54,54,45,NA,NA,NA,NA,NA,NA,NA,NA,NA,NA,44,FALSE,20,59.9107545865,NA,"American English","VSH_Exp2","2016_Mar_23_1803",NA
"Recordings/vavi.wav","yes","v","v","a","no","i","vavi","Training","bilabial","TrainingItems",0,55,55,51,NA,NA,NA,NA,NA,NA,NA,NA,NA,NA,44,FALSE,20,59.9107545865,NA,"American English","VSH_Exp2","2016_Mar_23_1803",NA
"Recordings/papa.wav","no","p","p","a","yes","a","papa","Training","bilabial","TrainingItems",0,56,56,12,NA,NA,NA,NA,NA,NA,NA,NA,NA,NA,44,FALSE,20,59.9107545865,NA,"American English","VSH_Exp2","2016_Mar_23_1803",NA
"Recordings/fafu.wav","no","f","f","a","no","u","fafu","Training","bilabial","TrainingItems",0,57,57,18,NA,NA,NA,NA,NA,NA,NA,NA,NA,NA,44,FALSE,20,59.9107545865,NA,"American English","VSH_Exp2","2016_Mar_23_1803",NA
"Recordings/tipi.wav","no","t","p","i","yes","i","tipi","Training","alveolar","TrainingItems",0,58,58,50,NA,NA,NA,NA,NA,NA,NA,NA,NA,NA,44,FALSE,20,59.9107545865,NA,"American English","VSH_Exp2","2016_Mar_23_1803",NA
"Recordings/badi.wav","yes","b","d","a","yes","i","badi","Training","bilabial","TrainingItems",0,59,59,26,NA,NA,NA,NA,NA,NA,NA,NA,NA,NA,44,FALSE,20,59.9107545865,NA,"American English","VSH_Exp2","2016_Mar_23_1803",NA
"Recordings/fisu.wav","no","f","s","i","no","u","fisu","Training","bilabial","TrainingItems",0,60,60,83,NA,NA,NA,NA,NA,NA,NA,NA,NA,NA,44,FALSE,20,59.9107545865,NA,"American English","VSH_Exp2","2016_Mar_23_1803",NA
"Recordings/tati.wav","no","t","t","a","yes","i","tati","Training","alveolar","TrainingItems",0,61,61,44,NA,NA,NA,NA,NA,NA,NA,NA,NA,NA,44,FALSE,20,59.9107545865,NA,"American English","VSH_Exp2","2016_Mar_23_1803",NA
"Recordings/zuzi.wav","yes","z","z","u","no","i","zuzi","Training","alveolar","TrainingItems",0,62,62,89,NA,NA,NA,NA,NA,NA,NA,NA,NA,NA,44,FALSE,20,59.9107545865,NA,"American English","VSH_Exp2","2016_Mar_23_1803",NA
"Recordings/susi.wav","no","s","s","u","no","i","susi","Training","alveolar","TrainingItems",0,63,63,9,NA,NA,NA,NA,NA,NA,NA,NA,NA,NA,44,FALSE,20,59.9107545865,NA,"American English","VSH_Exp2","2016_Mar_23_1803",NA
"Recordings/vuva.wav","yes","v","v","u","no","a","vuva","Training","bilabial","TrainingItems",0,64,64,94,NA,NA,NA,NA,NA,NA,NA,NA,NA,NA,44,FALSE,20,59.9107545865,NA,"American English","VSH_Exp2","2016_Mar_23_1803",NA
"Recordings/daba.wav","yes","d","b","a","yes","a","daba","Training","alveolar","TrainingItems",0,65,65,13,NA,NA,NA,NA,NA,NA,NA,NA,NA,NA,44,FALSE,20,59.9107545865,NA,"American English","VSH_Exp2","2016_Mar_23_1803",NA
"Recordings/dudu.wav","yes","d","d","u","yes","u","dudu","Training","alveolar","TrainingItems",0,66,66,5,NA,NA,NA,NA,NA,NA,NA,NA,NA,NA,44,FALSE,20,59.9107545865,NA,"American English","VSH_Exp2","2016_Mar_23_1803",NA
"Recordings/safa.wav","no","s","f","a","no","a","safa","Training","alveolar","TrainingItems",0,67,67,85,NA,NA,NA,NA,NA,NA,NA,NA,NA,NA,44,FALSE,20,59.9107545865,NA,"American English","VSH_Exp2","2016_Mar_23_1803",NA
"Recordings/budi.wav","yes","b","d","u","yes","i","budi","Training","bilabial","TrainingItems",0,68,68,62,NA,NA,NA,NA,NA,NA,NA,NA,NA,NA,44,FALSE,20,59.9107545865,NA,"American English","VSH_Exp2","2016_Mar_23_1803",NA
"Recordings/patu.wav","no","p","t","a","yes","u","patu","Training","bilabial","TrainingItems",0,69,69,27,NA,NA,NA,NA,NA,NA,NA,NA,NA,NA,44,FALSE,20,59.9107545865,NA,"American English","VSH_Exp2","2016_Mar_23_1803",NA
"Recordings/bada.wav","yes","b","d","a","yes","a","bada","Training","bilabial","TrainingItems",0,70,70,84,NA,NA,NA,NA,NA,NA,NA,NA,NA,NA,44,FALSE,20,59.9107545865,NA,"American English","VSH_Exp2","2016_Mar_23_1803",NA
"Recordings/sisa.wav","no","s","s","i","no","a","sisa","Training","alveolar","TrainingItems",0,71,71,91,NA,NA,NA,NA,NA,NA,NA,NA,NA,NA,44,FALSE,20,59.9107545865,NA,"American English","VSH_Exp2","2016_Mar_23_1803",NA
"Recordings/tipa.wav","no","t","p","i","yes","a","tipa","Training","alveolar","TrainingItems",0,72,72,4,NA,NA,NA,NA,NA,NA,NA,NA,NA,NA,44,FALSE,20,59.9107545865,NA,"American English","VSH_Exp2","2016_Mar_23_1803",NA
"Recordings/dada.wav","yes","d","d","a","yes","a","dada","Training","alveolar","TrainingItems",0,73,73,57,NA,NA,NA,NA,NA,NA,NA,NA,NA,NA,44,FALSE,20,59.9107545865,NA,"American English","VSH_Exp2","2016_Mar_23_1803",NA
"Recordings/tutu.wav","no","t","t","u","yes","u","tutu","Training","alveolar","TrainingItems",0,74,74,65,NA,NA,NA,NA,NA,NA,NA,NA,NA,NA,44,FALSE,20,59.9107545865,NA,"American English","VSH_Exp2","2016_Mar_23_1803",NA
"Recordings/biba.wav","yes","b","b","i","yes","a","biba","Training","bilabial","TrainingItems",0,75,75,21,NA,NA,NA,NA,NA,NA,NA,NA,NA,NA,44,FALSE,20,59.9107545865,NA,"American English","VSH_Exp2","2016_Mar_23_1803",NA
"Recordings/zuzu.wav","yes","z","z","u","no","u","zuzu","Training","alveolar","TrainingItems",0,76,76,61,NA,NA,NA,NA,NA,NA,NA,NA,NA,NA,44,FALSE,20,59.9107545865,NA,"American English","VSH_Exp2","2016_Mar_23_1803",NA
"Recordings/pipa.wav","no","p","p","i","yes","a","pipa","Training","bilabial","TrainingItems",0,77,77,98,NA,NA,NA,NA,NA,NA,NA,NA,NA,NA,44,FALSE,20,59.9107545865,NA,"American English","VSH_Exp2","2016_Mar_23_1803",NA
"Recordings/tatu.wav","no","t","t","a","yes","u","tatu","Training","alveolar","TrainingItems",0,78,78,64,NA,NA,NA,NA,NA,NA,NA,NA,NA,NA,44,FALSE,20,59.9107545865,NA,"American English","VSH_Exp2","2016_Mar_23_1803",NA
"Recordings/sufa.wav","no","s","f","u","no","a","sufa","Training","alveolar","TrainingItems",0,79,79,15,NA,NA,NA,NA,NA,NA,NA,NA,NA,NA,44,FALSE,20,59.9107545865,NA,"American English","VSH_Exp2","2016_Mar_23_1803",NA
"Recordings/dubi.wav","yes","d","b","u","yes","i","dubi","Training","alveolar","TrainingItems",0,80,80,28,NA,NA,NA,NA,NA,NA,NA,NA,NA,NA,44,FALSE,20,59.9107545865,NA,"American English","VSH_Exp2","2016_Mar_23_1803",NA
"Recordings/piti.wav","no","p","t","i","yes","i","piti","Training","bilabial","TrainingItems",0,81,81,55,NA,NA,NA,NA,NA,NA,NA,NA,NA,NA,44,FALSE,20,59.9107545865,NA,"American English","VSH_Exp2","2016_Mar_23_1803",NA
"Recordings/putu.wav","no","p","t","u","yes","u","putu","Training","bilabial","TrainingItems",0,82,82,56,NA,NA,NA,NA,NA,NA,NA,NA,NA,NA,44,FALSE,20,59.9107545865,NA,"American English","VSH_Exp2","2016_Mar_23_1803",NA
"Recordings/tuti.wav","no","t","t","u","yes","i","tuti","Training","alveolar","TrainingItems",0,83,83,75,NA,NA,NA,NA,NA,NA,NA,NA,NA,NA,44,FALSE,20,59.9107545865,NA,"American English","VSH_Exp2","2016_Mar_23_1803",NA
"Recordings/pipu.wav","no","p","p","i","yes","u","pipu","Training","bilabial","TrainingItems",0,84,84,11,NA,NA,NA,NA,NA,NA,NA,NA,NA,NA,44,FALSE,20,59.9107545865,NA,"American English","VSH_Exp2","2016_Mar_23_1803",NA
"Recordings/tapi.wav","no","t","p","a","yes","i","tapi","Training","alveolar","TrainingItems",0,85,85,60,NA,NA,NA,NA,NA,NA,NA,NA,NA,NA,44,FALSE,20,59.9107545865,NA,"American English","VSH_Exp2","2016_Mar_23_1803",NA
"Recordings/bidu.wav","yes","b","d","i","yes","u","bidu","Training","bilabial","TrainingItems",0,86,86,19,NA,NA,NA,NA,NA,NA,NA,NA,NA,NA,44,FALSE,20,59.9107545865,NA,"American English","VSH_Exp2","2016_Mar_23_1803",NA
"Recordings/sasa.wav","no","s","s","a","no","a","sasa","Training","alveolar","TrainingItems",0,87,87,46,NA,NA,NA,NA,NA,NA,NA,NA,NA,NA,44,FALSE,20,59.9107545865,NA,"American English","VSH_Exp2","2016_Mar_23_1803",NA
"Recordings/dabu.wav","yes","d","b","a","yes","u","dabu","Training","alveolar","TrainingItems",0,88,88,34,NA,NA,NA,NA,NA,NA,NA,NA,NA,NA,44,FALSE,20,59.9107545865,NA,"American English","VSH_Exp2","2016_Mar_23_1803",NA
"Recordings/papi.wav","no","p","p","a","yes","i","papi","Training","bilabial","TrainingItems",0,89,89,54,NA,NA,NA,NA,NA,NA,NA,NA,NA,NA,44,FALSE,20,59.9107545865,NA,"American English","VSH_Exp2","2016_Mar_23_1803",NA
"Recordings/tupu.wav","no","t","p","u","yes","u","tupu","Training","alveolar","TrainingItems",0,90,90,96,NA,NA,NA,NA,NA,NA,NA,NA,NA,NA,44,FALSE,20,59.9107545865,NA,"American English","VSH_Exp2","2016_Mar_23_1803",NA
"Recordings/zaza.wav","yes","z","z","a","no","a","zaza","Training","alveolar","TrainingItems",0,91,91,0,NA,NA,NA,NA,NA,NA,NA,NA,NA,NA,44,FALSE,20,59.9107545865,NA,"American English","VSH_Exp2","2016_Mar_23_1803",NA
"Recordings/pupu.wav","no","p","p","u","yes","u","pupu","Training","bilabial","TrainingItems",0,92,92,80,NA,NA,NA,NA,NA,NA,NA,NA,NA,NA,44,FALSE,20,59.9107545865,NA,"American English","VSH_Exp2","2016_Mar_23_1803",NA
"Recordings/fusi.wav","no","f","s","u","no","i","fusi","Training","bilabial","TrainingItems",0,93,93,95,NA,NA,NA,NA,NA,NA,NA,NA,NA,NA,44,FALSE,20,59.9107545865,NA,"American English","VSH_Exp2","2016_Mar_23_1803",NA
"Recordings/sufu.wav","no","s","f","u","no","u","sufu","Training","alveolar","TrainingItems",0,94,94,77,NA,NA,NA,NA,NA,NA,NA,NA,NA,NA,44,FALSE,20,59.9107545865,NA,"American English","VSH_Exp2","2016_Mar_23_1803",NA
"Recordings/sasu.wav","no","s","s","a","no","u","sasu","Training","alveolar","TrainingItems",0,95,95,48,NA,NA,NA,NA,NA,NA,NA,NA,NA,NA,44,FALSE,20,59.9107545865,NA,"American English","VSH_Exp2","2016_Mar_23_1803",NA
"Recordings/fusu.wav","no","f","s","u","no","u","fusu","Training","bilabial","TrainingItems",0,96,96,74,NA,NA,NA,NA,NA,NA,NA,NA,NA,NA,44,FALSE,20,59.9107545865,NA,"American English","VSH_Exp2","2016_Mar_23_1803",NA
"Recordings/fufu.wav","no","f","f","u","no","u","fufu","Training","bilabial","TrainingItems",0,97,97,86,NA,NA,NA,NA,NA,NA,NA,NA,NA,NA,44,FALSE,20,59.9107545865,NA,"American English","VSH_Exp2","2016_Mar_23_1803",NA
"Recordings/vuvu.wav","yes","v","v","u","no","u","vuvu","Training","bilabial","TrainingItems",0,98,98,30,NA,NA,NA,NA,NA,NA,NA,NA,NA,NA,44,FALSE,20,59.9107545865,NA,"American English","VSH_Exp2","2016_Mar_23_1803",NA
"Recordings/duba.wav","yes","d","b","u","yes","a","duba","Training","alveolar","TrainingItems",0,99,99,23,NA,NA,NA,NA,NA,NA,NA,NA,NA,NA,44,FALSE,20,59.9107545865,NA,"American English","VSH_Exp2","2016_Mar_23_1803",NA
"Recordings/sisa.wav","no","s","s","i","no","a","sisa","Training","alveolar","TrainingItems",1,0,100,91,NA,NA,NA,NA,NA,NA,NA,NA,NA,NA,44,FALSE,20,59.9107545865,NA,"American English","VSH_Exp2","2016_Mar_23_1803",NA
"Recordings/badu.wav","yes","b","d","a","yes","u","badu","Training","bilabial","TrainingItems",1,1,101,1,NA,NA,NA,NA,NA,NA,NA,NA,NA,NA,44,FALSE,20,59.9107545865,NA,"American English","VSH_Exp2","2016_Mar_23_1803",NA
"Recordings/tati.wav","no","t","t","a","yes","i","tati","Training","alveolar","TrainingItems",1,2,102,44,NA,NA,NA,NA,NA,NA,NA,NA,NA,NA,44,FALSE,20,59.9107545865,NA,"American English","VSH_Exp2","2016_Mar_23_1803",NA
"Recordings/duba.wav","yes","d","b","u","yes","a","duba","Training","alveolar","TrainingItems",1,3,103,23,NA,NA,NA,NA,NA,NA,NA,NA,NA,NA,44,FALSE,20,59.9107545865,NA,"American English","VSH_Exp2","2016_Mar_23_1803",NA
"Recordings/vivi.wav","yes","v","v","i","no","i","vivi","Training","bilabial","TrainingItems",1,4,104,68,NA,NA,NA,NA,NA,NA,NA,NA,NA,NA,44,FALSE,20,59.9107545865,NA,"American English","VSH_Exp2","2016_Mar_23_1803",NA
"Recordings/zuzu.wav","yes","z","z","u","no","u","zuzu","Training","alveolar","TrainingItems",1,5,105,61,NA,NA,NA,NA,NA,NA,NA,NA,NA,NA,44,FALSE,20,59.9107545865,NA,"American English","VSH_Exp2","2016_Mar_23_1803",NA
"Recordings/dabu.wav","yes","d","b","a","yes","u","dabu","Training","alveolar","TrainingItems",1,6,106,34,NA,NA,NA,NA,NA,NA,NA,NA,NA,NA,44,FALSE,20,59.9107545865,NA,"American English","VSH_Exp2","2016_Mar_23_1803",NA
"Recordings/putu.wav","no","p","t","u","yes","u","putu","Training","bilabial","TrainingItems",1,7,107,56,NA,NA,NA,NA,NA,NA,NA,NA,NA,NA,44,FALSE,20,59.9107545865,NA,"American English","VSH_Exp2","2016_Mar_23_1803",NA
"Recordings/puta.wav","no","p","t","u","yes","a","puta","Training","bilabial","TrainingItems",1,8,108,33,NA,NA,NA,NA,NA,NA,NA,NA,NA,NA,44,FALSE,20,59.9107545865,NA,"American English","VSH_Exp2","2016_Mar_23_1803",NA
"Recordings/fisu.wav","no","f","s","i","no","u","fisu","Training","bilabial","TrainingItems",1,9,109,83,NA,NA,NA,NA,NA,NA,NA,NA,NA,NA,44,FALSE,20,59.9107545865,NA,"American English","VSH_Exp2","2016_Mar_23_1803",NA
"Recordings/dibi.wav","yes","d","b","i","yes","i","dibi","Training","alveolar","TrainingItems",1,10,110,59,NA,NA,NA,NA,NA,NA,NA,NA,NA,NA,44,FALSE,20,59.9107545865,NA,"American English","VSH_Exp2","2016_Mar_23_1803",NA
"Recordings/titu.wav","no","t","t","i","yes","u","titu","Training","alveolar","TrainingItems",1,11,111,52,NA,NA,NA,NA,NA,NA,NA,NA,NA,NA,44,FALSE,20,59.9107545865,NA,"American English","VSH_Exp2","2016_Mar_23_1803",NA
"Recordings/baba.wav","yes","b","b","a","yes","a","baba","Training","bilabial","TrainingItems",1,12,112,78,NA,NA,NA,NA,NA,NA,NA,NA,NA,NA,44,FALSE,20,59.9107545865,NA,"American English","VSH_Exp2","2016_Mar_23_1803",NA
"Recordings/biba.wav","yes","b","b","i","yes","a","biba","Training","bilabial","TrainingItems",1,13,113,21,NA,NA,NA,NA,NA,NA,NA,NA,NA,NA,44,FALSE,20,59.9107545865,NA,"American English","VSH_Exp2","2016_Mar_23_1803",NA
"Recordings/viva.wav","yes","v","v","i","no","a","viva","Training","bilabial","TrainingItems",1,14,114,31,NA,NA,NA,NA,NA,NA,NA,NA,NA,NA,44,FALSE,20,59.9107545865,NA,"American English","VSH_Exp2","2016_Mar_23_1803",NA
"Recordings/tuti.wav","no","t","t","u","yes","i","tuti","Training","alveolar","TrainingItems",1,15,115,75,NA,NA,NA,NA,NA,NA,NA,NA,NA,NA,44,FALSE,20,59.9107545865,NA,"American English","VSH_Exp2","2016_Mar_23_1803",NA
"Recordings/papa.wav","no","p","p","a","yes","a","papa","Training","bilabial","TrainingItems",1,16,116,12,NA,NA,NA,NA,NA,NA,NA,NA,NA,NA,44,FALSE,20,59.9107545865,NA,"American English","VSH_Exp2","2016_Mar_23_1803",NA
"Recordings/badi.wav","yes","b","d","a","yes","i","badi","Training","bilabial","TrainingItems",1,17,117,26,NA,NA,NA,NA,NA,NA,NA,NA,NA,NA,44,FALSE,20,59.9107545865,NA,"American English","VSH_Exp2","2016_Mar_23_1803",NA
"Recordings/buda.wav","yes","b","d","u","yes","a","buda","Training","bilabial","TrainingItems",1,18,118,99,NA,NA,NA,NA,NA,NA,NA,NA,NA,NA,44,FALSE,20,59.9107545865,NA,"American English","VSH_Exp2","2016_Mar_23_1803",NA
"Recordings/dubi.wav","yes","d","b","u","yes","i","dubi","Training","alveolar","TrainingItems",1,19,119,28,NA,NA,NA,NA,NA,NA,NA,NA,NA,NA,44,FALSE,20,59.9107545865,NA,"American English","VSH_Exp2","2016_Mar_23_1803",NA
"Recordings/vavi.wav","yes","v","v","a","no","i","vavi","Training","bilabial","TrainingItems",1,20,120,51,NA,NA,NA,NA,NA,NA,NA,NA,NA,NA,44,FALSE,20,59.9107545865,NA,"American English","VSH_Exp2","2016_Mar_23_1803",NA
"Recordings/vivu.wav","yes","v","v","i","no","u","vivu","Training","bilabial","TrainingItems",1,21,121,67,NA,NA,NA,NA,NA,NA,NA,NA,NA,NA,44,FALSE,20,59.9107545865,NA,"American English","VSH_Exp2","2016_Mar_23_1803",NA
"Recordings/dada.wav","yes","d","d","a","yes","a","dada","Training","alveolar","TrainingItems",1,22,122,57,NA,NA,NA,NA,NA,NA,NA,NA,NA,NA,44,FALSE,20,59.9107545865,NA,"American English","VSH_Exp2","2016_Mar_23_1803",NA
"Recordings/pupu.wav","no","p","p","u","yes","u","pupu","Training","bilabial","TrainingItems",1,23,123,80,NA,NA,NA,NA,NA,NA,NA,NA,NA,NA,44,FALSE,20,59.9107545865,NA,"American English","VSH_Exp2","2016_Mar_23_1803",NA
"Recordings/safu.wav","no","s","f","a","no","u","safu","Training","alveolar","TrainingItems",1,24,124,7,NA,NA,NA,NA,NA,NA,NA,NA,NA,NA,44,FALSE,20,59.9107545865,NA,"American English","VSH_Exp2","2016_Mar_23_1803",NA
"Recordings/tipi.wav","no","t","p","i","yes","i","tipi","Training","alveolar","TrainingItems",1,25,125,50,NA,NA,NA,NA,NA,NA,NA,NA,NA,NA,44,FALSE,20,59.9107545865,NA,"American English","VSH_Exp2","2016_Mar_23_1803",NA
"Recordings/sisi.wav","no","s","s","i","no","i","sisi","Training","alveolar","TrainingItems",1,26,126,39,NA,NA,NA,NA,NA,NA,NA,NA,NA,NA,44,FALSE,20,59.9107545865,NA,"American English","VSH_Exp2","2016_Mar_23_1803",NA
"Recordings/susi.wav","no","s","s","u","no","i","susi","Training","alveolar","TrainingItems",1,27,127,9,NA,NA,NA,NA,NA,NA,NA,NA,NA,NA,44,FALSE,20,59.9107545865,NA,"American English","VSH_Exp2","2016_Mar_23_1803",NA
"Recordings/fusu.wav","no","f","s","u","no","u","fusu","Training","bilabial","TrainingItems",1,28,128,74,NA,NA,NA,NA,NA,NA,NA,NA,NA,NA,44,FALSE,20,59.9107545865,NA,"American English","VSH_Exp2","2016_Mar_23_1803",NA
"Recordings/sifa.wav","no","s","f","i","no","a","sifa","Training","alveolar","TrainingItems",1,29,129,14,NA,NA,NA,NA,NA,NA,NA,NA,NA,NA,44,FALSE,20,59.9107545865,NA,"American English","VSH_Exp2","2016_Mar_23_1803",NA
"Recordings/tipa.wav","no","t","p","i","yes","a","tipa","Training","alveolar","TrainingItems",1,30,130,4,NA,NA,NA,NA,NA,NA,NA,NA,NA,NA,44,FALSE,20,59.9107545865,NA,"American English","VSH_Exp2","2016_Mar_23_1803",NA
"Recordings/dadi.wav","yes","d","d","a","yes","i","dadi","Training","alveolar","TrainingItems",1,31,131,16,NA,NA,NA,NA,NA,NA,NA,NA,NA,NA,44,FALSE,20,59.9107545865,NA,"American English","VSH_Exp2","2016_Mar_23_1803",NA
"Recordings/fusi.wav","no","f","s","u","no","i","fusi","Training","bilabial","TrainingItems",1,32,132,95,NA,NA,NA,NA,NA,NA,NA,NA,NA,NA,44,FALSE,20,59.9107545865,NA,"American English","VSH_Exp2","2016_Mar_23_1803",NA
"Recordings/didu.wav","yes","d","d","i","yes","u","didu","Training","alveolar","TrainingItems",1,33,133,42,NA,NA,NA,NA,NA,NA,NA,NA,NA,NA,44,FALSE,20,59.9107545865,NA,"American English","VSH_Exp2","2016_Mar_23_1803",NA
"Recordings/duda.wav","yes","d","d","u","yes","a","duda","Training","alveolar","TrainingItems",1,34,134,40,NA,NA,NA,NA,NA,NA,NA,NA,NA,NA,44,FALSE,20,59.9107545865,NA,"American English","VSH_Exp2","2016_Mar_23_1803",NA
"Recordings/sufa.wav","no","s","f","u","no","a","sufa","Training","alveolar","TrainingItems",1,35,135,15,NA,NA,NA,NA,NA,NA,NA,NA,NA,NA,44,FALSE,20,59.9107545865,NA,"American English","VSH_Exp2","2016_Mar_23_1803",NA
"Recordings/pitu.wav","no","p","t","i","yes","u","pitu","Training","bilabial","TrainingItems",1,36,136,71,NA,NA,NA,NA,NA,NA,NA,NA,NA,NA,44,FALSE,20,59.9107545865,NA,"American English","VSH_Exp2","2016_Mar_23_1803",NA
"Recordings/piti.wav","no","p","t","i","yes","i","piti","Training","bilabial","TrainingItems",1,37,137,55,NA,NA,NA,NA,NA,NA,NA,NA,NA,NA,44,FALSE,20,59.9107545865,NA,"American English","VSH_Exp2","2016_Mar_23_1803",NA
"Recordings/pipu.wav","no","p","p","i","yes","u","pipu","Training","bilabial","TrainingItems",1,38,138,11,NA,NA,NA,NA,NA,NA,NA,NA,NA,NA,44,FALSE,20,59.9107545865,NA,"American English","VSH_Exp2","2016_Mar_23_1803",NA
"Recordings/budu.wav","yes","b","d","u","yes","u","budu","Training","bilabial","TrainingItems",1,39,139,58,NA,NA,NA,NA,NA,NA,NA,NA,NA,NA,44,FALSE,20,59.9107545865,NA,"American English","VSH_Exp2","2016_Mar_23_1803",NA
"Recordings/puti.wav","no","p","t","u","yes","i","puti","Training","bilabial","TrainingItems",1,40,140,41,NA,NA,NA,NA,NA,NA,NA,NA,NA,NA,44,FALSE,20,59.9107545865,NA,"American English","VSH_Exp2","2016_Mar_23_1803",NA
"Recordings/vuvu.wav","yes","v","v","u","no","u","vuvu","Training","bilabial","TrainingItems",1,41,141,30,NA,NA,NA,NA,NA,NA,NA,NA,NA,NA,44,FALSE,20,59.9107545865,NA,"American English","VSH_Exp2","2016_Mar_23_1803",NA
"Recordings/safa.wav","no","s","f","a","no","a","safa","Training","alveolar","TrainingItems",1,42,142,85,NA,NA,NA,NA,NA,NA,NA,NA,NA,NA,44,FALSE,20,59.9107545865,NA,"American English","VSH_Exp2","2016_Mar_23_1803",NA
"Recordings/tutu.wav","no","t","t","u","yes","u","tutu","Training","alveolar","TrainingItems",1,43,143,65,NA,NA,NA,NA,NA,NA,NA,NA,NA,NA,44,FALSE,20,59.9107545865,NA,"American English","VSH_Exp2","2016_Mar_23_1803",NA
"Recordings/zaza.wav","yes","z","z","a","no","a","zaza","Training","alveolar","TrainingItems",1,44,144,0,NA,NA,NA,NA,NA,NA,NA,NA,NA,NA,44,FALSE,20,59.9107545865,NA,"American English","VSH_Exp2","2016_Mar_23_1803",NA
"Recordings/sasa.wav","no","s","s","a","no","a","sasa","Training","alveolar","TrainingItems",1,45,145,46,NA,NA,NA,NA,NA,NA,NA,NA,NA,NA,44,FALSE,20,59.9107545865,NA,"American English","VSH_Exp2","2016_Mar_23_1803",NA
"Recordings/dabi.wav","yes","d","b","a","yes","i","dabi","Training","alveolar","TrainingItems",1,46,146,79,NA,NA,NA,NA,NA,NA,NA,NA,NA,NA,44,FALSE,20,59.9107545865,NA,"American English","VSH_Exp2","2016_Mar_23_1803",NA
"Recordings/ziza.wav","yes","z","z","i","no","a","ziza","Training","alveolar","TrainingItems",1,47,147,47,NA,NA,NA,NA,NA,NA,NA,NA,NA,NA,44,FALSE,20,59.9107545865,NA,"American English","VSH_Exp2","2016_Mar_23_1803",NA
"Recordings/dudu.wav","yes","d","d","u","yes","u","dudu","Training","alveolar","TrainingItems",1,48,148,5,NA,NA,NA,NA,NA,NA,NA,NA,NA,NA,44,FALSE,20,59.9107545865,NA,"American English","VSH_Exp2","2016_Mar_23_1803",NA
"Recordings/vuva.wav","yes","v","v","u","no","a","vuva","Training","bilabial","TrainingItems",1,49,149,94,NA,NA,NA,NA,NA,NA,NA,NA,NA,NA,44,FALSE,20,59.9107545865,NA,"American English","VSH_Exp2","2016_Mar_23_1803",NA
"Recordings/zizi.wav","yes","z","z","i","no","i","zizi","Training","alveolar","TrainingItems",1,50,150,35,NA,NA,NA,NA,NA,NA,NA,NA,NA,NA,44,FALSE,20,59.9107545865,NA,"American English","VSH_Exp2","2016_Mar_23_1803",NA
"Recordings/daba.wav","yes","d","b","a","yes","a","daba","Training","alveolar","TrainingItems",1,51,151,13,NA,NA,NA,NA,NA,NA,NA,NA,NA,NA,44,FALSE,20,59.9107545865,NA,"American English","VSH_Exp2","2016_Mar_23_1803",NA
"Recordings/tipu.wav","no","t","p","i","yes","u","tipu","Training","alveolar","TrainingItems",1,52,152,88,NA,NA,NA,NA,NA,NA,NA,NA,NA,NA,44,FALSE,20,59.9107545865,NA,"American English","VSH_Exp2","2016_Mar_23_1803",NA
"Recordings/dida.wav","yes","d","d","i","yes","a","dida","Training","alveolar","TrainingItems",1,53,153,29,NA,NA,NA,NA,NA,NA,NA,NA,NA,NA,44,FALSE,20,59.9107545865,NA,"American English","VSH_Exp2","2016_Mar_23_1803",NA
"Recordings/papu.wav","no","p","p","a","yes","u","papu","Training","bilabial","TrainingItems",1,54,154,32,NA,NA,NA,NA,NA,NA,NA,NA,NA,NA,44,FALSE,20,59.9107545865,NA,"American English","VSH_Exp2","2016_Mar_23_1803",NA
"Recordings/sifi.wav","no","s","f","i","no","i","sifi","Training","alveolar","TrainingItems",1,55,155,45,NA,NA,NA,NA,NA,NA,NA,NA,NA,NA,44,FALSE,20,59.9107545865,NA,"American English","VSH_Exp2","2016_Mar_23_1803",NA
"Recordings/sasu.wav","no","s","s","a","no","u","sasu","Training","alveolar","TrainingItems",1,56,156,48,NA,NA,NA,NA,NA,NA,NA,NA,NA,NA,44,FALSE,20,59.9107545865,NA,"American English","VSH_Exp2","2016_Mar_23_1803",NA
"Recordings/zizu.wav","yes","z","z","i","no","u","zizu","Training","alveolar","TrainingItems",1,57,157,66,NA,NA,NA,NA,NA,NA,NA,NA,NA,NA,44,FALSE,20,59.9107545865,NA,"American English","VSH_Exp2","2016_Mar_23_1803",NA
"Recordings/dadu.wav","yes","d","d","a","yes","u","dadu","Training","alveolar","TrainingItems",1,58,158,3,NA,NA,NA,NA,NA,NA,NA,NA,NA,NA,44,FALSE,20,59.9107545865,NA,"American English","VSH_Exp2","2016_Mar_23_1803",NA
"Recordings/sufu.wav","no","s","f","u","no","u","sufu","Training","alveolar","TrainingItems",1,59,159,77,NA,NA,NA,NA,NA,NA,NA,NA,NA,NA,44,FALSE,20,59.9107545865,NA,"American English","VSH_Exp2","2016_Mar_23_1803",NA
"Recordings/sisu.wav","no","s","s","i","no","u","sisu","Training","alveolar","TrainingItems",1,60,160,92,NA,NA,NA,NA,NA,NA,NA,NA,NA,NA,44,FALSE,20,59.9107545865,NA,"American English","VSH_Exp2","2016_Mar_23_1803",NA
"Recordings/fasi.wav","no","f","s","a","no","i","fasi","Training","bilabial","TrainingItems",1,61,161,2,NA,NA,NA,NA,NA,NA,NA,NA,NA,NA,44,FALSE,20,59.9107545865,NA,"American English","VSH_Exp2","2016_Mar_23_1803",NA
"Recordings/fifi.wav","no","f","f","i","no","i","fifi","Training","bilabial","TrainingItems",1,62,162,87,NA,NA,NA,NA,NA,NA,NA,NA,NA,NA,44,FALSE,20,59.9107545865,NA,"American English","VSH_Exp2","2016_Mar_23_1803",NA
"Recordings/pupa.wav","no","p","p","u","yes","a","pupa","Training","bilabial","TrainingItems",1,63,163,43,NA,NA,NA,NA,NA,NA,NA,NA,NA,NA,44,FALSE,20,59.9107545865,NA,"American English","VSH_Exp2","2016_Mar_23_1803",NA
"Recordings/dubu.wav","yes","d","b","u","yes","u","dubu","Training","alveolar","TrainingItems",1,64,164,8,NA,NA,NA,NA,NA,NA,NA,NA,NA,NA,44,FALSE,20,59.9107545865,NA,"American English","VSH_Exp2","2016_Mar_23_1803",NA
"Recordings/tatu.wav","no","t","t","a","yes","u","tatu","Training","alveolar","TrainingItems",1,65,165,64,NA,NA,NA,NA,NA,NA,NA,NA,NA,NA,44,FALSE,20,59.9107545865,NA,"American English","VSH_Exp2","2016_Mar_23_1803",NA
"Recordings/pipi.wav","no","p","p","i","yes","i","pipi","Training","bilabial","TrainingItems",1,66,166,76,NA,NA,NA,NA,NA,NA,NA,NA,NA,NA,44,FALSE,20,59.9107545865,NA,"American English","VSH_Exp2","2016_Mar_23_1803",NA
"Recordings/bibi.wav","yes","b","b","i","yes","i","bibi","Training","bilabial","TrainingItems",1,67,167,6,NA,NA,NA,NA,NA,NA,NA,NA,NA,NA,44,FALSE,20,59.9107545865,NA,"American English","VSH_Exp2","2016_Mar_23_1803",NA
"Recordings/tupa.wav","no","t","p","u","yes","a","tupa","Training","alveolar","TrainingItems",1,68,168,81,NA,NA,NA,NA,NA,NA,NA,NA,NA,NA,44,FALSE,20,59.9107545865,NA,"American English","VSH_Exp2","2016_Mar_23_1803",NA
"Recordings/tapu.wav","no","t","p","a","yes","u","tapu","Training","alveolar","TrainingItems",1,69,169,22,NA,NA,NA,NA,NA,NA,NA,NA,NA,NA,44,FALSE,20,59.9107545865,NA,"American English","VSH_Exp2","2016_Mar_23_1803",NA
"Recordings/vavu.wav","yes","v","v","a","no","u","vavu","Training","bilabial","TrainingItems",1,70,170,25,NA,NA,NA,NA,NA,NA,NA,NA,NA,NA,44,FALSE,20,59.9107545865,NA,"American English","VSH_Exp2","2016_Mar_23_1803",NA
"Recordings/babu.wav","yes","b","b","a","yes","u","babu","Training","bilabial","TrainingItems",1,71,171,93,NA,NA,NA,NA,NA,NA,NA,NA,NA,NA,44,FALSE,20,59.9107545865,NA,"American English","VSH_Exp2","2016_Mar_23_1803",NA
"Recordings/fisi.wav","no","f","s","i","no","i","fisi","Training","bilabial","TrainingItems",1,72,172,37,NA,NA,NA,NA,NA,NA,NA,NA,NA,NA,44,FALSE,20,59.9107545865,NA,"American English","VSH_Exp2","2016_Mar_23_1803",NA
"Recordings/pipa.wav","no","p","p","i","yes","a","pipa","Training","bilabial","TrainingItems",1,73,173,98,NA,NA,NA,NA,NA,NA,NA,NA,NA,NA,44,FALSE,20,59.9107545865,NA,"American English","VSH_Exp2","2016_Mar_23_1803",NA
"Recordings/bada.wav","yes","b","d","a","yes","a","bada","Training","bilabial","TrainingItems",1,74,174,84,NA,NA,NA,NA,NA,NA,NA,NA,NA,NA,44,FALSE,20,59.9107545865,NA,"American English","VSH_Exp2","2016_Mar_23_1803",NA
"Recordings/fisa.wav","no","f","s","i","no","a","fisa","Training","bilabial","TrainingItems",1,75,175,72,NA,NA,NA,NA,NA,NA,NA,NA,NA,NA,44,FALSE,20,59.9107545865,NA,"American English","VSH_Exp2","2016_Mar_23_1803",NA
"Recordings/safi.wav","no","s","f","a","no","i","safi","Training","alveolar","TrainingItems",1,76,176,20,NA,NA,NA,NA,NA,NA,NA,NA,NA,NA,44,FALSE,20,59.9107545865,NA,"American English","VSH_Exp2","2016_Mar_23_1803",NA
"Recordings/susa.wav","no","s","s","u","no","a","susa","Training","alveolar","TrainingItems",1,77,177,82,NA,NA,NA,NA,NA,NA,NA,NA,NA,NA,44,FALSE,20,59.9107545865,NA,"American English","VSH_Exp2","2016_Mar_23_1803",NA
"Recordings/papi.wav","no","p","p","a","yes","i","papi","Training","bilabial","TrainingItems",1,78,178,54,NA,NA,NA,NA,NA,NA,NA,NA,NA,NA,44,FALSE,20,59.9107545865,NA,"American English","VSH_Exp2","2016_Mar_23_1803",NA
"Recordings/sifu.wav","no","s","f","i","no","u","sifu","Training","alveolar","TrainingItems",1,79,179,10,NA,NA,NA,NA,NA,NA,NA,NA,NA,NA,44,FALSE,20,59.9107545865,NA,"American English","VSH_Exp2","2016_Mar_23_1803",NA
"Recordings/pata.wav","no","p","t","a","yes","a","pata","Training","bilabial","TrainingItems",1,80,180,90,NA,NA,NA,NA,NA,NA,NA,NA,NA,NA,44,FALSE,20,59.9107545865,NA,"American English","VSH_Exp2","2016_Mar_23_1803",NA
"Recordings/tapi.wav","no","t","p","a","yes","i","tapi","Training","alveolar","TrainingItems",1,81,181,60,NA,NA,NA,NA,NA,NA,NA,NA,NA,NA,44,FALSE,20,59.9107545865,NA,"American English","VSH_Exp2","2016_Mar_23_1803",NA
"Recordings/pita.wav","no","p","t","i","yes","a","pita","Training","bilabial","TrainingItems",1,82,182,97,NA,NA,NA,NA,NA,NA,NA,NA,NA,NA,44,FALSE,20,59.9107545865,NA,"American English","VSH_Exp2","2016_Mar_23_1803",NA
"Recordings/fufu.wav","no","f","f","u","no","u","fufu","Training","bilabial","TrainingItems",1,83,183,86,NA,NA,NA,NA,NA,NA,NA,NA,NA,NA,44,FALSE,20,59.9107545865,NA,"American English","VSH_Exp2","2016_Mar_23_1803",NA
"Recordings/fifu.wav","no","f","f","i","no","u","fifu","Training","bilabial","TrainingItems",1,84,184,17,NA,NA,NA,NA,NA,NA,NA,NA,NA,NA,44,FALSE,20,59.9107545865,NA,"American English","VSH_Exp2","2016_Mar_23_1803",NA
"Recordings/fusa.wav","no","f","s","u","no","a","fusa","Training","bilabial","TrainingItems",1,85,185,53,NA,NA,NA,NA,NA,NA,NA,NA,NA,NA,44,FALSE,20,59.9107545865,NA,"American English","VSH_Exp2","2016_Mar_23_1803",NA
"Recordings/bidu.wav","yes","b","d","i","yes","u","bidu","Training","bilabial","TrainingItems",1,86,186,19,NA,NA,NA,NA,NA,NA,NA,NA,NA,NA,44,FALSE,20,59.9107545865,NA,"American English","VSH_Exp2","2016_Mar_23_1803",NA
"Recordings/zuzi.wav","yes","z","z","u","no","i","zuzi","Training","alveolar","TrainingItems",1,87,187,89,NA,NA,NA,NA,NA,NA,NA,NA,NA,NA,44,FALSE,20,59.9107545865,NA,"American English","VSH_Exp2","2016_Mar_23_1803",NA
"Recordings/pupi.wav","no","p","p","u","yes","i","pupi","Training","bilabial","TrainingItems",1,88,188,73,NA,NA,NA,NA,NA,NA,NA,NA,NA,NA,44,FALSE,20,59.9107545865,NA,"American English","VSH_Exp2","2016_Mar_23_1803",NA
"Recordings/susu.wav","no","s","s","u","no","u","susu","Training","alveolar","TrainingItems",1,89,189,49,NA,NA,NA,NA,NA,NA,NA,NA,NA,NA,44,FALSE,20,59.9107545865,NA,"American English","VSH_Exp2","2016_Mar_23_1803",NA
"Recordings/tupu.wav","no","t","p","u","yes","u","tupu","Training","alveolar","TrainingItems",1,90,190,96,NA,NA,NA,NA,NA,NA,NA,NA,NA,NA,44,FALSE,20,59.9107545865,NA,"American English","VSH_Exp2","2016_Mar_23_1803",NA
"Recordings/tuta.wav","no","t","t","u","yes","a","tuta","Training","alveolar","TrainingItems",1,91,191,38,NA,NA,NA,NA,NA,NA,NA,NA,NA,NA,44,FALSE,20,59.9107545865,NA,"American English","VSH_Exp2","2016_Mar_23_1803",NA
"Recordings/tupi.wav","no","t","p","u","yes","i","tupi","Training","alveolar","TrainingItems",1,92,192,63,NA,NA,NA,NA,NA,NA,NA,NA,NA,NA,44,FALSE,20,59.9107545865,NA,"American English","VSH_Exp2","2016_Mar_23_1803",NA
"Recordings/budi.wav","yes","b","d","u","yes","i","budi","Training","bilabial","TrainingItems",1,93,193,62,NA,NA,NA,NA,NA,NA,NA,NA,NA,NA,44,FALSE,20,59.9107545865,NA,"American English","VSH_Exp2","2016_Mar_23_1803",NA
"Recordings/fafa.wav","no","f","f","a","no","a","fafa","Training","bilabial","TrainingItems",1,94,194,36,NA,NA,NA,NA,NA,NA,NA,NA,NA,NA,44,FALSE,20,59.9107545865,NA,"American English","VSH_Exp2","2016_Mar_23_1803",NA
"Recordings/fafu.wav","no","f","f","a","no","u","fafu","Training","bilabial","TrainingItems",1,95,195,18,NA,NA,NA,NA,NA,NA,NA,NA,NA,NA,44,FALSE,20,59.9107545865,NA,"American English","VSH_Exp2","2016_Mar_23_1803",NA
"Recordings/fufi.wav","no","f","f","u","no","i","fufi","Training","bilabial","TrainingItems",1,96,196,69,NA,NA,NA,NA,NA,NA,NA,NA,NA,NA,44,FALSE,20,59.9107545865,NA,"American English","VSH_Exp2","2016_Mar_23_1803",NA
"Recordings/tapa.wav","no","t","p","a","yes","a","tapa","Training","alveolar","TrainingItems",1,97,197,70,NA,NA,NA,NA,NA,NA,NA,NA,NA,NA,44,FALSE,20,59.9107545865,NA,"American English","VSH_Exp2","2016_Mar_23_1803",NA
"Recordings/patu.wav","no","p","t","a","yes","u","patu","Training","bilabial","TrainingItems",1,98,198,27,NA,NA,NA,NA,NA,NA,NA,NA,NA,NA,44,FALSE,20,59.9107545865,NA,"American English","VSH_Exp2","2016_Mar_23_1803",NA
"Recordings/dibu.wav","yes","d","b","i","yes","u","dibu","Training","alveolar","TrainingItems",1,99,199,24,NA,NA,NA,NA,NA,NA,NA,NA,NA,NA,44,FALSE,20,59.9107545865,NA,"American English","VSH_Exp2","2016_Mar_23_1803",NA
NA,NA,NA,NA,NA,NA,NA,NA,NA,NA,NA,NA,NA,NA,NA,NA,NA,NA,NA,NA,NA,"space",4.08812880516,NA,NA,44,FALSE,20,59.9107545865,NA,"American English","VSH_Exp2","2016_Mar_23_1803",NA
"Recordings/vazi.wav","yes","v","z","a","no","i","vazi","Test","bilabial","NewConsTestStimuli",NA,NA,NA,NA,0,0,0,11,NA,NA,NA,NA,"No",3.958,44,FALSE,20,59.9107545865,NA,"American English","VSH_Exp2","2016_Mar_23_1803",NA
"Recordings/zuzu.wav","yes","z","z","u","no","u","zuzu","Test","alveolar","OldTestStimuli",NA,NA,NA,NA,0,1,1,7,NA,NA,NA,NA,"Yes",1.087,44,FALSE,20,59.9107545865,NA,"American English","VSH_Exp2","2016_Mar_23_1803",NA
"Recordings/dufu.wav","yes","d","f","u","yes","u","dufu","Controls","alveolar","NoPatternControls",NA,NA,NA,NA,0,2,2,55,NA,NA,NA,NA,"No",1.287,44,FALSE,20,59.9107545865,NA,"American English","VSH_Exp2","2016_Mar_23_1803",NA
"Recordings/sipi.wav","no","s","p","i","no","i","sipi","Controls","alveolar","VoicingControls",NA,NA,NA,NA,0,3,3,49,NA,NA,NA,NA,"No",0.903,44,FALSE,20,59.9107545865,NA,"American English","VSH_Exp2","2016_Mar_23_1803",NA
"Recordings/baza.wav","yes","b","z","a","yes","a","baza","Controls","bilabial","VoicingControls",NA,NA,NA,NA,0,4,4,46,NA,NA,NA,NA,"No",1.004,44,FALSE,20,59.9107545865,NA,"American English","VSH_Exp2","2016_Mar_23_1803",NA
"Recordings/babu.wav","yes","b","b","a","yes","u","babu","Test","bilabial","OldTestStimuli",NA,NA,NA,NA,0,5,5,0,NA,NA,NA,NA,"Yes",1.32,44,FALSE,20,59.9107545865,NA,"American English","VSH_Exp2","2016_Mar_23_1803",NA
"Recordings/dadi.wav","yes","d","d","a","yes","i","dadi","Test","alveolar","OldTestStimuli",NA,NA,NA,NA,0,6,6,5,NA,NA,NA,NA,"No",1.404,44,FALSE,20,59.9107545865,NA,"American English","VSH_Exp2","2016_Mar_23_1803",NA
"Recordings/biba.wav","yes","b","b","i","yes","a","biba","Test","bilabial","OldTestStimuli",NA,NA,NA,NA,0,7,7,3,NA,NA,NA,NA,"Yes",1.17,44,FALSE,20,59.9107545865,NA,"American English","VSH_Exp2","2016_Mar_23_1803",NA
"Recordings/tadi.wav","no","t","d","a","yes","i","tadi","Controls","alveolar","StopControls",NA,NA,NA,NA,0,8,8,37,NA,NA,NA,NA,"Yes",1.805,44,FALSE,20,59.9107545865,NA,"American English","VSH_Exp2","2016_Mar_23_1803",NA
"Recordings/zazu.wav","yes","z","z","a","no","u","zazu","Test","alveolar","NewWordTestStimuli",NA,NA,NA,NA,0,9,9,20,NA,NA,NA,NA,"Yes",0.853,44,FALSE,20,59.9107545865,NA,"American English","VSH_Exp2","2016_Mar_23_1803",NA
"Recordings/vuzi.wav","yes","v","z","u","no","i","vuzi","Test","bilabial","NewConsTestStimuli",NA,NA,NA,NA,0,10,10,17,NA,NA,NA,NA,"Yes",0.953,44,FALSE,20,59.9107545865,NA,"American English","VSH_Exp2","2016_Mar_23_1803",NA
"Recordings/zifu.wav","yes","z","f","i","no","u","zifu","Controls","alveolar","StopControls",NA,NA,NA,NA,0,11,11,30,NA,NA,NA,NA,"No",1.555,44,FALSE,20,59.9107545865,NA,"American English","VSH_Exp2","2016_Mar_23_1803",NA
"Recordings/tusu.wav","no","t","s","u","yes","u","tusu","Controls","alveolar","VoicingControls",NA,NA,NA,NA,0,12,12,47,NA,NA,NA,NA,"Yes",1.721,44,FALSE,20,59.9107545865,NA,"American English","VSH_Exp2","2016_Mar_23_1803",NA
"Recordings/dupa.wav","yes","d","p","u","yes","a","dupa","Controls","alveolar","StopControls",NA,NA,NA,NA,0,13,13,38,NA,NA,NA,NA,"Yes",1.237,44,FALSE,20,59.9107545865,NA,"American English","VSH_Exp2","2016_Mar_23_1803",NA
"Recordings/siva.wav","no","s","v","i","no","a","siva","Controls","alveolar","StopControls",NA,NA,NA,NA,0,14,14,39,NA,NA,NA,NA,"No",1.069,44,FALSE,20,59.9107545865,NA,"American English","VSH_Exp2","2016_Mar_23_1803",NA
"Recordings/sida.wav","no","s","d","i","no","a","sida","Controls","alveolar","NoPatternControls",NA,NA,NA,NA,0,15,15,59,NA,NA,NA,NA,"No",0.953,44,FALSE,20,59.9107545865,NA,"American English","VSH_Exp2","2016_Mar_23_1803",NA
"Recordings/zuvi.wav","yes","z","v","u","no","i","zuvi","Test","alveolar","NewConsTestStimuli",NA,NA,NA,NA,0,16,16,10,NA,NA,NA,NA,"Yes",1.069,44,FALSE,20,59.9107545865,NA,"American English","VSH_Exp2","2016_Mar_23_1803",NA
"Recordings/ziva.wav","yes","z","v","i","no","a","ziva","Test","alveolar","NewConsTestStimuli",NA,NA,NA,NA,0,17,17,14,NA,NA,NA,NA,"Yes",1.271,44,FALSE,20,59.9107545865,NA,"American English","VSH_Exp2","2016_Mar_23_1803",NA
"Recordings/duva.wav","yes","d","v","u","yes","a","duva","Controls","alveolar","VoicingControls",NA,NA,NA,NA,0,18,18,48,NA,NA,NA,NA,"No",1.388,44,FALSE,20,59.9107545865,NA,"American English","VSH_Exp2","2016_Mar_23_1803",NA
"Recordings/dusu.wav","yes","d","s","u","yes","u","dusu","Controls","alveolar","NoPatternControls",NA,NA,NA,NA,0,19,19,53,NA,NA,NA,NA,"Yes",1.737,44,FALSE,20,59.9107545865,NA,"American English","VSH_Exp2","2016_Mar_23_1803",NA
"Recordings/vasu.wav","yes","v","s","a","no","u","vasu","Controls","bilabial","StopControls",NA,NA,NA,NA,0,20,20,34,NA,NA,NA,NA,"Yes",2.138,44,FALSE,20,59.9107545865,NA,"American English","VSH_Exp2","2016_Mar_23_1803",NA
"Recordings/duvu.wav","yes","d","v","u","yes","u","duvu","Controls","alveolar","VoicingControls",NA,NA,NA,NA,0,21,21,45,NA,NA,NA,NA,"Yes",1.237,44,FALSE,20,59.9107545865,NA,"American English","VSH_Exp2","2016_Mar_23_1803",NA
"Recordings/bifu.wav","yes","b","f","i","yes","u","bifu","Controls","bilabial","NoPatternControls",NA,NA,NA,NA,0,22,22,56,NA,NA,NA,NA,"No",1.121,44,FALSE,20,59.9107545865,NA,"American English","VSH_Exp2","2016_Mar_23_1803",NA
"Recordings/zibu.wav","yes","z","b","i","no","u","zibu","Controls","alveolar","VoicingControls",NA,NA,NA,NA,0,23,23,40,NA,NA,NA,NA,"Yes",1.02,44,FALSE,20,59.9107545865,NA,"American English","VSH_Exp2","2016_Mar_23_1803",NA
"Recordings/putu.wav","no","p","t","u","yes","u","putu","Test","bilabial","OldTestStimuli",NA,NA,NA,NA,0,24,24,9,NA,NA,NA,NA,"Yes",0.669,44,FALSE,20,59.9107545865,NA,"American English","VSH_Exp2","2016_Mar_23_1803",NA
"Recordings/fasi.wav","no","f","s","a","no","i","fasi","Test","bilabial","OldTestStimuli",NA,NA,NA,NA,0,25,25,6,NA,NA,NA,NA,"Yes",0.703,44,FALSE,20,59.9107545865,NA,"American English","VSH_Exp2","2016_Mar_23_1803",NA
"Recordings/vadu.wav","yes","v","d","a","no","u","vadu","Controls","bilabial","VoicingControls",NA,NA,NA,NA,0,26,26,44,NA,NA,NA,NA,"No",0.936,44,FALSE,20,59.9107545865,NA,"American English","VSH_Exp2","2016_Mar_23_1803",NA
"Recordings/fufa.wav","no","f","f","u","no","a","fufa","Test","bilabial","NewWordTestStimuli",NA,NA,NA,NA,0,27,27,29,NA,NA,NA,NA,"Yes",0.77,44,FALSE,20,59.9107545865,NA,"American English","VSH_Exp2","2016_Mar_23_1803",NA
"Recordings/fupa.wav","no","f","p","u","no","a","fupa","Controls","bilabial","VoicingControls",NA,NA,NA,NA,0,28,28,42,NA,NA,NA,NA,"No",1.153,44,FALSE,20,59.9107545865,NA,"American English","VSH_Exp2","2016_Mar_23_1803",NA
"Recordings/vuva.wav","yes","v","v","u","no","a","vuva","Test","bilabial","OldTestStimuli",NA,NA,NA,NA,0,29,29,8,NA,NA,NA,NA,"Yes",0.754,44,FALSE,20,59.9107545865,NA,"American English","VSH_Exp2","2016_Mar_23_1803",NA
"Recordings/buza.wav","yes","b","z","u","yes","a","buza","Controls","bilabial","VoicingControls",NA,NA,NA,NA,0,30,30,41,NA,NA,NA,NA,"Yes",1.321,44,FALSE,20,59.9107545865,NA,"American English","VSH_Exp2","2016_Mar_23_1803",NA
"Recordings/vaza.wav","yes","v","z","a","no","a","vaza","Test","bilabial","NewConsTestStimuli",NA,NA,NA,NA,0,31,31,15,NA,NA,NA,NA,"Yes",1.152,44,FALSE,20,59.9107545865,NA,"American English","VSH_Exp2","2016_Mar_23_1803",NA
"Recordings/bidi.wav","yes","b","d","i","yes","i","bidi","Test","bilabial","NewWordTestStimuli",NA,NA,NA,NA,0,32,32,21,NA,NA,NA,NA,"Yes",1.02,44,FALSE,20,59.9107545865,NA,"American English","VSH_Exp2","2016_Mar_23_1803",NA
"Recordings/dupu.wav","yes","d","p","u","yes","u","dupu","Controls","alveolar","StopControls",NA,NA,NA,NA,0,33,33,35,NA,NA,NA,NA,"Yes",0.854,44,FALSE,20,59.9107545865,NA,"American English","VSH_Exp2","2016_Mar_23_1803",NA
"Recordings/davi.wav","yes","d","v","a","yes","i","davi","Controls","alveolar","VoicingControls",NA,NA,NA,NA,0,34,34,43,NA,NA,NA,NA,"No",1.254,44,FALSE,20,59.9107545865,NA,"American English","VSH_Exp2","2016_Mar_23_1803",NA
"Recordings/buta.wav","yes","b","t","u","yes","a","buta","Controls","bilabial","StopControls",NA,NA,NA,NA,0,35,35,31,NA,NA,NA,NA,"Yes",1.353,44,FALSE,20,59.9107545865,NA,"American English","VSH_Exp2","2016_Mar_23_1803",NA
"Recordings/fuba.wav","no","f","b","u","no","a","fuba","Controls","bilabial","NoPatternControls",NA,NA,NA,NA,0,36,36,52,NA,NA,NA,NA,"No",1.821,44,FALSE,20,59.9107545865,NA,"American English","VSH_Exp2","2016_Mar_23_1803",NA
"Recordings/tata.wav","no","t","t","a","yes","a","tata","Test","alveolar","NewWordTestStimuli",NA,NA,NA,NA,0,37,37,28,NA,NA,NA,NA,"Yes",1.087,44,FALSE,20,59.9107545865,NA,"American English","VSH_Exp2","2016_Mar_23_1803",NA
"Recordings/vuzu.wav","yes","v","z","u","no","u","vuzu","Test","bilabial","NewConsTestStimuli",NA,NA,NA,NA,0,38,38,13,NA,NA,NA,NA,"Yes",1.187,44,FALSE,20,59.9107545865,NA,"American English","VSH_Exp2","2016_Mar_23_1803",NA
"Recordings/pipu.wav","no","p","p","i","yes","u","pipu","Test","bilabial","OldTestStimuli",NA,NA,NA,NA,0,39,39,1,NA,NA,NA,NA,"Yes",0.919,44,FALSE,20,59.9107545865,NA,"American English","VSH_Exp2","2016_Mar_23_1803",NA
"Recordings/zuta.wav","yes","z","t","u","no","a","zuta","Controls","alveolar","NoPatternControls",NA,NA,NA,NA,0,40,40,50,NA,NA,NA,NA,"No",1.654,44,FALSE,20,59.9107545865,NA,"American English","VSH_Exp2","2016_Mar_23_1803",NA
"Recordings/fasa.wav","no","f","s","a","no","a","fasa","Test","bilabial","NewWordTestStimuli",NA,NA,NA,NA,0,41,41,27,NA,NA,NA,NA,"Yes",1.137,44,FALSE,20,59.9107545865,NA,"American English","VSH_Exp2","2016_Mar_23_1803",NA
"Recordings/tita.wav","no","t","t","i","yes","a","tita","Test","alveolar","NewWordTestStimuli",NA,NA,NA,NA,0,42,42,24,NA,NA,NA,NA,"Yes",1.471,44,FALSE,20,59.9107545865,NA,"American English","VSH_Exp2","2016_Mar_23_1803",NA
"Recordings/zuvu.wav","yes","z","v","u","no","u","zuvu","Test","alveolar","NewConsTestStimuli",NA,NA,NA,NA,0,43,43,18,NA,NA,NA,NA,"Yes",1.019,44,FALSE,20,59.9107545865,NA,"American English","VSH_Exp2","2016_Mar_23_1803",NA
"Recordings/tuzu.wav","no","t","z","u","yes","u","tuzu","Controls","alveolar","NoPatternControls",NA,NA,NA,NA,0,44,44,57,NA,NA,NA,NA,"Yes",0.953,44,FALSE,20,59.9107545865,NA,"American English","VSH_Exp2","2016_Mar_23_1803",NA
"Recordings/dapi.wav","yes","d","p","a","yes","i","dapi","Controls","alveolar","StopControls",NA,NA,NA,NA,0,45,45,33,NA,NA,NA,NA,"Yes",0.77,44,FALSE,20,59.9107545865,NA,"American English","VSH_Exp2","2016_Mar_23_1803",NA
"Recordings/fizi.wav","no","f","z","i","no","i","fizi","Controls","bilabial","StopControls",NA,NA,NA,NA,0,46,46,32,NA,NA,NA,NA,"Yes",1.137,44,FALSE,20,59.9107545865,NA,"American English","VSH_Exp2","2016_Mar_23_1803",NA
"Recordings/vupa.wav","yes","v","p","u","no","a","vupa","Controls","bilabial","NoPatternControls",NA,NA,NA,NA,0,47,47,54,NA,NA,NA,NA,"Yes",0.753,44,FALSE,20,59.9107545865,NA,"American English","VSH_Exp2","2016_Mar_23_1803",NA
"Recordings/bata.wav","yes","b","t","a","yes","a","bata","Controls","bilabial","StopControls",NA,NA,NA,NA,0,48,48,36,NA,NA,NA,NA,"Yes",0.654,44,FALSE,20,59.9107545865,NA,"American English","VSH_Exp2","2016_Mar_23_1803",NA
"Recordings/babi.wav","yes","b","b","a","yes","i","babi","Test","bilabial","NewWordTestStimuli",NA,NA,NA,NA,0,49,49,23,NA,NA,NA,NA,"Yes",1.119,44,FALSE,20,59.9107545865,NA,"American English","VSH_Exp2","2016_Mar_23_1803",NA
"Recordings/disi.wav","yes","d","s","i","yes","i","disi","Controls","alveolar","NoPatternControls",NA,NA,NA,NA,0,50,50,58,NA,NA,NA,NA,"No",3.556,44,FALSE,20,59.9107545865,NA,"American English","VSH_Exp2","2016_Mar_23_1803",NA
"Recordings/bisa.wav","yes","b","s","i","yes","a","bisa","Controls","bilabial","NoPatternControls",NA,NA,NA,NA,0,51,51,51,NA,NA,NA,NA,"Yes",1.153,44,FALSE,20,59.9107545865,NA,"American English","VSH_Exp2","2016_Mar_23_1803",NA
"Recordings/zuva.wav","yes","z","v","u","no","a","zuva","Test","alveolar","NewConsTestStimuli",NA,NA,NA,NA,0,52,52,19,NA,NA,NA,NA,"Yes",1.338,44,FALSE,20,59.9107545865,NA,"American English","VSH_Exp2","2016_Mar_23_1803",NA
"Recordings/vizi.wav","yes","v","z","i","no","i","vizi","Test","bilabial","NewConsTestStimuli",NA,NA,NA,NA,0,53,53,12,NA,NA,NA,NA,"Yes",0.737,44,FALSE,20,59.9107545865,NA,"American English","VSH_Exp2","2016_Mar_23_1803",NA
"Recordings/bibu.wav","yes","b","b","i","yes","u","bibu","Test","bilabial","NewWordTestStimuli",NA,NA,NA,NA,0,54,54,26,NA,NA,NA,NA,"Yes",0.869,44,FALSE,20,59.9107545865,NA,"American English","VSH_Exp2","2016_Mar_23_1803",NA
"Recordings/dabu.wav","yes","d","b","a","yes","u","dabu","Test","alveolar","OldTestStimuli",NA,NA,NA,NA,0,55,55,2,NA,NA,NA,NA,"Yes",0.953,44,FALSE,20,59.9107545865,NA,"American English","VSH_Exp2","2016_Mar_23_1803",NA
"Recordings/buba.wav","yes","b","b","u","yes","a","buba","Test","bilabial","NewWordTestStimuli",NA,NA,NA,NA,0,56,56,25,NA,NA,NA,NA,"Yes",0.903,44,FALSE,20,59.9107545865,NA,"American English","VSH_Exp2","2016_Mar_23_1803",NA
"Recordings/vazu.wav","yes","v","z","a","no","u","vazu","Test","bilabial","NewConsTestStimuli",NA,NA,NA,NA,0,57,57,16,NA,NA,NA,NA,"Yes",0.953,44,FALSE,20,59.9107545865,NA,"American English","VSH_Exp2","2016_Mar_23_1803",NA
"Recordings/diba.wav","yes","d","b","i","yes","a","diba","Test","alveolar","NewWordTestStimuli",NA,NA,NA,NA,0,58,58,22,NA,NA,NA,NA,"No",1.32,44,FALSE,20,59.9107545865,NA,"American English","VSH_Exp2","2016_Mar_23_1803",NA
"Recordings/bada.wav","yes","b","d","a","yes","a","bada","Test","bilabial","OldTestStimuli",NA,NA,NA,NA,0,59,59,4,NA,NA,NA,NA,"Yes",1.204,44,FALSE,20,59.9107545865,NA,"American English","VSH_Exp2","2016_Mar_23_1803",NA
