"SOUND","VOICING","SEGMENT","SEGMENT3","SEGMENT2","STOP","SEGMENT4","STIMULUS","GENERAL_TYPE","PLACE","TYPE","trials.thisRepN","trials.thisTrialN","trials.thisN","trials.thisIndex","trials_2.thisRepN","trials_2.thisTrialN","trials_2.thisN","trials_2.thisIndex","SpaceBar.keys","SpaceBar.rt","key_resp_2.keys","key_resp_2.rt","rating.response","rating.rt","participant","Gender","Age","frameRate","OtherLanguages","NativeLanguage","expName","date","X34"
NA,NA,NA,NA,NA,NA,NA,NA,NA,NA,NA,NA,NA,NA,NA,NA,NA,NA,NA,"space",1.87064480782,NA,NA,NA,NA,46,FALSE,21,59.9344683952,NA,"American English","VSH_Exp2","2016_Mar_23_1803",NA
"Recordings/tuti.wav","no","t","t","u","yes","i","tuti","Training","alveolar","TrainingItems",0,0,0,81,NA,NA,NA,NA,NA,NA,NA,NA,NA,NA,46,FALSE,21,59.9344683952,NA,"American English","VSH_Exp2","2016_Mar_23_1803",NA
"Recordings/bidu.wav","yes","b","d","i","yes","u","bidu","Training","bilabial","TrainingItems",0,1,1,23,NA,NA,NA,NA,NA,NA,NA,NA,NA,NA,46,FALSE,21,59.9344683952,NA,"American English","VSH_Exp2","2016_Mar_23_1803",NA
"Recordings/zuvi.wav","yes","z","v","u","no","i","zuvi","Training","alveolar","TrainingItems",0,2,2,74,NA,NA,NA,NA,NA,NA,NA,NA,NA,NA,46,FALSE,21,59.9344683952,NA,"American English","VSH_Exp2","2016_Mar_23_1803",NA
"Recordings/baba.wav","yes","b","b","a","yes","a","baba","Training","bilabial","TrainingItems",0,3,3,29,NA,NA,NA,NA,NA,NA,NA,NA,NA,NA,46,FALSE,21,59.9344683952,NA,"American English","VSH_Exp2","2016_Mar_23_1803",NA
"Recordings/vavu.wav","yes","v","v","a","no","u","vavu","Training","bilabial","TrainingItems",0,4,4,40,NA,NA,NA,NA,NA,NA,NA,NA,NA,NA,46,FALSE,21,59.9344683952,NA,"American English","VSH_Exp2","2016_Mar_23_1803",NA
"Recordings/fifa.wav","no","f","f","i","no","a","fifa","Training","bilabial","TrainingItems",0,5,5,32,NA,NA,NA,NA,NA,NA,NA,NA,NA,NA,46,FALSE,21,59.9344683952,NA,"American English","VSH_Exp2","2016_Mar_23_1803",NA
"Recordings/pipa.wav","no","p","p","i","yes","a","pipa","Training","bilabial","TrainingItems",0,6,6,80,NA,NA,NA,NA,NA,NA,NA,NA,NA,NA,46,FALSE,21,59.9344683952,NA,"American English","VSH_Exp2","2016_Mar_23_1803",NA
"Recordings/sifi.wav","no","s","f","i","no","i","sifi","Training","alveolar","TrainingItems",0,7,7,14,NA,NA,NA,NA,NA,NA,NA,NA,NA,NA,46,FALSE,21,59.9344683952,NA,"American English","VSH_Exp2","2016_Mar_23_1803",NA
"Recordings/fasi.wav","no","f","s","a","no","i","fasi","Training","bilabial","TrainingItems",0,8,8,51,NA,NA,NA,NA,NA,NA,NA,NA,NA,NA,46,FALSE,21,59.9344683952,NA,"American English","VSH_Exp2","2016_Mar_23_1803",NA
"Recordings/zizi.wav","yes","z","z","i","no","i","zizi","Training","alveolar","TrainingItems",0,9,9,46,NA,NA,NA,NA,NA,NA,NA,NA,NA,NA,46,FALSE,21,59.9344683952,NA,"American English","VSH_Exp2","2016_Mar_23_1803",NA
"Recordings/pipu.wav","no","p","p","i","yes","u","pipu","Training","bilabial","TrainingItems",0,10,10,30,NA,NA,NA,NA,NA,NA,NA,NA,NA,NA,46,FALSE,21,59.9344683952,NA,"American English","VSH_Exp2","2016_Mar_23_1803",NA
"Recordings/bubi.wav","yes","b","b","u","yes","i","bubi","Training","bilabial","TrainingItems",0,11,11,56,NA,NA,NA,NA,NA,NA,NA,NA,NA,NA,46,FALSE,21,59.9344683952,NA,"American English","VSH_Exp2","2016_Mar_23_1803",NA
"Recordings/vazu.wav","yes","v","z","a","no","u","vazu","Training","bilabial","TrainingItems",0,12,12,4,NA,NA,NA,NA,NA,NA,NA,NA,NA,NA,46,FALSE,21,59.9344683952,NA,"American English","VSH_Exp2","2016_Mar_23_1803",NA
"Recordings/pupi.wav","no","p","p","u","yes","i","pupi","Training","bilabial","TrainingItems",0,13,13,68,NA,NA,NA,NA,NA,NA,NA,NA,NA,NA,46,FALSE,21,59.9344683952,NA,"American English","VSH_Exp2","2016_Mar_23_1803",NA
"Recordings/fasa.wav","no","f","s","a","no","a","fasa","Training","bilabial","TrainingItems",0,14,14,10,NA,NA,NA,NA,NA,NA,NA,NA,NA,NA,46,FALSE,21,59.9344683952,NA,"American English","VSH_Exp2","2016_Mar_23_1803",NA
"Recordings/fufi.wav","no","f","f","u","no","i","fufi","Training","bilabial","TrainingItems",0,15,15,12,NA,NA,NA,NA,NA,NA,NA,NA,NA,NA,46,FALSE,21,59.9344683952,NA,"American English","VSH_Exp2","2016_Mar_23_1803",NA
"Recordings/vuzi.wav","yes","v","z","u","no","i","vuzi","Training","bilabial","TrainingItems",0,16,16,28,NA,NA,NA,NA,NA,NA,NA,NA,NA,NA,46,FALSE,21,59.9344683952,NA,"American English","VSH_Exp2","2016_Mar_23_1803",NA
"Recordings/fusi.wav","no","f","s","u","no","i","fusi","Training","bilabial","TrainingItems",0,17,17,47,NA,NA,NA,NA,NA,NA,NA,NA,NA,NA,46,FALSE,21,59.9344683952,NA,"American English","VSH_Exp2","2016_Mar_23_1803",NA
"Recordings/daba.wav","yes","d","b","a","yes","a","daba","Training","alveolar","TrainingItems",0,18,18,54,NA,NA,NA,NA,NA,NA,NA,NA,NA,NA,46,FALSE,21,59.9344683952,NA,"American English","VSH_Exp2","2016_Mar_23_1803",NA
"Recordings/budu.wav","yes","b","d","u","yes","u","budu","Training","bilabial","TrainingItems",0,19,19,21,NA,NA,NA,NA,NA,NA,NA,NA,NA,NA,46,FALSE,21,59.9344683952,NA,"American English","VSH_Exp2","2016_Mar_23_1803",NA
"Recordings/pupu.wav","no","p","p","u","yes","u","pupu","Training","bilabial","TrainingItems",0,20,20,1,NA,NA,NA,NA,NA,NA,NA,NA,NA,NA,46,FALSE,21,59.9344683952,NA,"American English","VSH_Exp2","2016_Mar_23_1803",NA
"Recordings/fafa.wav","no","f","f","a","no","a","fafa","Training","bilabial","TrainingItems",0,21,21,66,NA,NA,NA,NA,NA,NA,NA,NA,NA,NA,46,FALSE,21,59.9344683952,NA,"American English","VSH_Exp2","2016_Mar_23_1803",NA
"Recordings/sifu.wav","no","s","f","i","no","u","sifu","Training","alveolar","TrainingItems",0,22,22,18,NA,NA,NA,NA,NA,NA,NA,NA,NA,NA,46,FALSE,21,59.9344683952,NA,"American English","VSH_Exp2","2016_Mar_23_1803",NA
"Recordings/bida.wav","yes","b","d","i","yes","a","bida","Training","bilabial","TrainingItems",0,23,23,90,NA,NA,NA,NA,NA,NA,NA,NA,NA,NA,46,FALSE,21,59.9344683952,NA,"American English","VSH_Exp2","2016_Mar_23_1803",NA
"Recordings/zuva.wav","yes","z","v","u","no","a","zuva","Training","alveolar","TrainingItems",0,24,24,96,NA,NA,NA,NA,NA,NA,NA,NA,NA,NA,46,FALSE,21,59.9344683952,NA,"American English","VSH_Exp2","2016_Mar_23_1803",NA
"Recordings/zavu.wav","yes","z","v","a","no","u","zavu","Training","alveolar","TrainingItems",0,25,25,73,NA,NA,NA,NA,NA,NA,NA,NA,NA,NA,46,FALSE,21,59.9344683952,NA,"American English","VSH_Exp2","2016_Mar_23_1803",NA
"Recordings/zivu.wav","yes","z","v","i","no","u","zivu","Training","alveolar","TrainingItems",0,26,26,65,NA,NA,NA,NA,NA,NA,NA,NA,NA,NA,46,FALSE,21,59.9344683952,NA,"American English","VSH_Exp2","2016_Mar_23_1803",NA
"Recordings/buba.wav","yes","b","b","u","yes","a","buba","Training","bilabial","TrainingItems",0,27,27,99,NA,NA,NA,NA,NA,NA,NA,NA,NA,NA,46,FALSE,21,59.9344683952,NA,"American English","VSH_Exp2","2016_Mar_23_1803",NA
"Recordings/zuzu.wav","yes","z","z","u","no","u","zuzu","Training","alveolar","TrainingItems",0,28,28,37,NA,NA,NA,NA,NA,NA,NA,NA,NA,NA,46,FALSE,21,59.9344683952,NA,"American English","VSH_Exp2","2016_Mar_23_1803",NA
"Recordings/zavi.wav","yes","z","v","a","no","i","zavi","Training","alveolar","TrainingItems",0,29,29,49,NA,NA,NA,NA,NA,NA,NA,NA,NA,NA,46,FALSE,21,59.9344683952,NA,"American English","VSH_Exp2","2016_Mar_23_1803",NA
"Recordings/fisu.wav","no","f","s","i","no","u","fisu","Training","bilabial","TrainingItems",0,30,30,35,NA,NA,NA,NA,NA,NA,NA,NA,NA,NA,46,FALSE,21,59.9344683952,NA,"American English","VSH_Exp2","2016_Mar_23_1803",NA
"Recordings/vivu.wav","yes","v","v","i","no","u","vivu","Training","bilabial","TrainingItems",0,31,31,22,NA,NA,NA,NA,NA,NA,NA,NA,NA,NA,46,FALSE,21,59.9344683952,NA,"American English","VSH_Exp2","2016_Mar_23_1803",NA
"Recordings/papi.wav","no","p","p","a","yes","i","papi","Training","bilabial","TrainingItems",0,32,32,53,NA,NA,NA,NA,NA,NA,NA,NA,NA,NA,46,FALSE,21,59.9344683952,NA,"American English","VSH_Exp2","2016_Mar_23_1803",NA
"Recordings/diba.wav","yes","d","b","i","yes","a","diba","Training","alveolar","TrainingItems",0,33,33,3,NA,NA,NA,NA,NA,NA,NA,NA,NA,NA,46,FALSE,21,59.9344683952,NA,"American English","VSH_Exp2","2016_Mar_23_1803",NA
"Recordings/zuvu.wav","yes","z","v","u","no","u","zuvu","Training","alveolar","TrainingItems",0,34,34,78,NA,NA,NA,NA,NA,NA,NA,NA,NA,NA,46,FALSE,21,59.9344683952,NA,"American English","VSH_Exp2","2016_Mar_23_1803",NA
"Recordings/vavi.wav","yes","v","v","a","no","i","vavi","Training","bilabial","TrainingItems",0,35,35,70,NA,NA,NA,NA,NA,NA,NA,NA,NA,NA,46,FALSE,21,59.9344683952,NA,"American English","VSH_Exp2","2016_Mar_23_1803",NA
"Recordings/zizu.wav","yes","z","z","i","no","u","zizu","Training","alveolar","TrainingItems",0,36,36,36,NA,NA,NA,NA,NA,NA,NA,NA,NA,NA,46,FALSE,21,59.9344683952,NA,"American English","VSH_Exp2","2016_Mar_23_1803",NA
"Recordings/vizu.wav","yes","v","z","i","no","u","vizu","Training","bilabial","TrainingItems",0,37,37,67,NA,NA,NA,NA,NA,NA,NA,NA,NA,NA,46,FALSE,21,59.9344683952,NA,"American English","VSH_Exp2","2016_Mar_23_1803",NA
"Recordings/vuvu.wav","yes","v","v","u","no","u","vuvu","Training","bilabial","TrainingItems",0,38,38,86,NA,NA,NA,NA,NA,NA,NA,NA,NA,NA,46,FALSE,21,59.9344683952,NA,"American English","VSH_Exp2","2016_Mar_23_1803",NA
"Recordings/fufu.wav","no","f","f","u","no","u","fufu","Training","bilabial","TrainingItems",0,39,39,26,NA,NA,NA,NA,NA,NA,NA,NA,NA,NA,46,FALSE,21,59.9344683952,NA,"American English","VSH_Exp2","2016_Mar_23_1803",NA
"Recordings/fufa.wav","no","f","f","u","no","a","fufa","Training","bilabial","TrainingItems",0,40,40,97,NA,NA,NA,NA,NA,NA,NA,NA,NA,NA,46,FALSE,21,59.9344683952,NA,"American English","VSH_Exp2","2016_Mar_23_1803",NA
"Recordings/bibu.wav","yes","b","b","i","yes","u","bibu","Training","bilabial","TrainingItems",0,41,41,16,NA,NA,NA,NA,NA,NA,NA,NA,NA,NA,46,FALSE,21,59.9344683952,NA,"American English","VSH_Exp2","2016_Mar_23_1803",NA
"Recordings/dadu.wav","yes","d","d","a","yes","u","dadu","Training","alveolar","TrainingItems",0,42,42,55,NA,NA,NA,NA,NA,NA,NA,NA,NA,NA,46,FALSE,21,59.9344683952,NA,"American English","VSH_Exp2","2016_Mar_23_1803",NA
"Recordings/fafu.wav","no","f","f","a","no","u","fafu","Training","bilabial","TrainingItems",0,43,43,17,NA,NA,NA,NA,NA,NA,NA,NA,NA,NA,46,FALSE,21,59.9344683952,NA,"American English","VSH_Exp2","2016_Mar_23_1803",NA
"Recordings/vazi.wav","yes","v","z","a","no","i","vazi","Training","bilabial","TrainingItems",0,44,44,24,NA,NA,NA,NA,NA,NA,NA,NA,NA,NA,46,FALSE,21,59.9344683952,NA,"American English","VSH_Exp2","2016_Mar_23_1803",NA
"Recordings/didi.wav","yes","d","d","i","yes","i","didi","Training","alveolar","TrainingItems",0,45,45,87,NA,NA,NA,NA,NA,NA,NA,NA,NA,NA,46,FALSE,21,59.9344683952,NA,"American English","VSH_Exp2","2016_Mar_23_1803",NA
"Recordings/bibi.wav","yes","b","b","i","yes","i","bibi","Training","bilabial","TrainingItems",0,46,46,82,NA,NA,NA,NA,NA,NA,NA,NA,NA,NA,46,FALSE,21,59.9344683952,NA,"American English","VSH_Exp2","2016_Mar_23_1803",NA
"Recordings/sufu.wav","no","s","f","u","no","u","sufu","Training","alveolar","TrainingItems",0,47,47,79,NA,NA,NA,NA,NA,NA,NA,NA,NA,NA,46,FALSE,21,59.9344683952,NA,"American English","VSH_Exp2","2016_Mar_23_1803",NA
"Recordings/tita.wav","no","t","t","i","yes","a","tita","Training","alveolar","TrainingItems",0,48,48,62,NA,NA,NA,NA,NA,NA,NA,NA,NA,NA,46,FALSE,21,59.9344683952,NA,"American English","VSH_Exp2","2016_Mar_23_1803",NA
"Recordings/papa.wav","no","p","p","a","yes","a","papa","Training","bilabial","TrainingItems",0,49,49,50,NA,NA,NA,NA,NA,NA,NA,NA,NA,NA,46,FALSE,21,59.9344683952,NA,"American English","VSH_Exp2","2016_Mar_23_1803",NA
"Recordings/fusu.wav","no","f","s","u","no","u","fusu","Training","bilabial","TrainingItems",0,50,50,33,NA,NA,NA,NA,NA,NA,NA,NA,NA,NA,46,FALSE,21,59.9344683952,NA,"American English","VSH_Exp2","2016_Mar_23_1803",NA
"Recordings/dubu.wav","yes","d","b","u","yes","u","dubu","Training","alveolar","TrainingItems",0,51,51,39,NA,NA,NA,NA,NA,NA,NA,NA,NA,NA,46,FALSE,21,59.9344683952,NA,"American English","VSH_Exp2","2016_Mar_23_1803",NA
"Recordings/sisu.wav","no","s","s","i","no","u","sisu","Training","alveolar","TrainingItems",0,52,52,20,NA,NA,NA,NA,NA,NA,NA,NA,NA,NA,46,FALSE,21,59.9344683952,NA,"American English","VSH_Exp2","2016_Mar_23_1803",NA
"Recordings/babu.wav","yes","b","b","a","yes","u","babu","Training","bilabial","TrainingItems",0,53,53,91,NA,NA,NA,NA,NA,NA,NA,NA,NA,NA,46,FALSE,21,59.9344683952,NA,"American English","VSH_Exp2","2016_Mar_23_1803",NA
"Recordings/sifa.wav","no","s","f","i","no","a","sifa","Training","alveolar","TrainingItems",0,54,54,92,NA,NA,NA,NA,NA,NA,NA,NA,NA,NA,46,FALSE,21,59.9344683952,NA,"American English","VSH_Exp2","2016_Mar_23_1803",NA
"Recordings/sisa.wav","no","s","s","i","no","a","sisa","Training","alveolar","TrainingItems",0,55,55,45,NA,NA,NA,NA,NA,NA,NA,NA,NA,NA,46,FALSE,21,59.9344683952,NA,"American English","VSH_Exp2","2016_Mar_23_1803",NA
"Recordings/zaza.wav","yes","z","z","a","no","a","zaza","Training","alveolar","TrainingItems",0,56,56,7,NA,NA,NA,NA,NA,NA,NA,NA,NA,NA,46,FALSE,21,59.9344683952,NA,"American English","VSH_Exp2","2016_Mar_23_1803",NA
"Recordings/vuzu.wav","yes","v","z","u","no","u","vuzu","Training","bilabial","TrainingItems",0,57,57,0,NA,NA,NA,NA,NA,NA,NA,NA,NA,NA,46,FALSE,21,59.9344683952,NA,"American English","VSH_Exp2","2016_Mar_23_1803",NA
"Recordings/budi.wav","yes","b","d","u","yes","i","budi","Training","bilabial","TrainingItems",0,58,58,48,NA,NA,NA,NA,NA,NA,NA,NA,NA,NA,46,FALSE,21,59.9344683952,NA,"American English","VSH_Exp2","2016_Mar_23_1803",NA
"Recordings/badi.wav","yes","b","d","a","yes","i","badi","Training","bilabial","TrainingItems",0,59,59,64,NA,NA,NA,NA,NA,NA,NA,NA,NA,NA,46,FALSE,21,59.9344683952,NA,"American English","VSH_Exp2","2016_Mar_23_1803",NA
"Recordings/fasu.wav","no","f","s","a","no","u","fasu","Training","bilabial","TrainingItems",0,60,60,72,NA,NA,NA,NA,NA,NA,NA,NA,NA,NA,46,FALSE,21,59.9344683952,NA,"American English","VSH_Exp2","2016_Mar_23_1803",NA
"Recordings/zivi.wav","yes","z","v","i","no","i","zivi","Training","alveolar","TrainingItems",0,61,61,15,NA,NA,NA,NA,NA,NA,NA,NA,NA,NA,46,FALSE,21,59.9344683952,NA,"American English","VSH_Exp2","2016_Mar_23_1803",NA
"Recordings/fisi.wav","no","f","s","i","no","i","fisi","Training","bilabial","TrainingItems",0,62,62,58,NA,NA,NA,NA,NA,NA,NA,NA,NA,NA,46,FALSE,21,59.9344683952,NA,"American English","VSH_Exp2","2016_Mar_23_1803",NA
"Recordings/didu.wav","yes","d","d","i","yes","u","didu","Training","alveolar","TrainingItems",0,63,63,98,NA,NA,NA,NA,NA,NA,NA,NA,NA,NA,46,FALSE,21,59.9344683952,NA,"American English","VSH_Exp2","2016_Mar_23_1803",NA
"Recordings/safu.wav","no","s","f","a","no","u","safu","Training","alveolar","TrainingItems",0,64,64,5,NA,NA,NA,NA,NA,NA,NA,NA,NA,NA,46,FALSE,21,59.9344683952,NA,"American English","VSH_Exp2","2016_Mar_23_1803",NA
"Recordings/tata.wav","no","t","t","a","yes","a","tata","Training","alveolar","TrainingItems",0,65,65,71,NA,NA,NA,NA,NA,NA,NA,NA,NA,NA,46,FALSE,21,59.9344683952,NA,"American English","VSH_Exp2","2016_Mar_23_1803",NA
"Recordings/tutu.wav","no","t","t","u","yes","u","tutu","Training","alveolar","TrainingItems",0,66,66,43,NA,NA,NA,NA,NA,NA,NA,NA,NA,NA,46,FALSE,21,59.9344683952,NA,"American English","VSH_Exp2","2016_Mar_23_1803",NA
"Recordings/vivi.wav","yes","v","v","i","no","i","vivi","Training","bilabial","TrainingItems",0,67,67,27,NA,NA,NA,NA,NA,NA,NA,NA,NA,NA,46,FALSE,21,59.9344683952,NA,"American English","VSH_Exp2","2016_Mar_23_1803",NA
"Recordings/sasa.wav","no","s","s","a","no","a","sasa","Training","alveolar","TrainingItems",0,68,68,94,NA,NA,NA,NA,NA,NA,NA,NA,NA,NA,46,FALSE,21,59.9344683952,NA,"American English","VSH_Exp2","2016_Mar_23_1803",NA
"Recordings/titu.wav","no","t","t","i","yes","u","titu","Training","alveolar","TrainingItems",0,69,69,59,NA,NA,NA,NA,NA,NA,NA,NA,NA,NA,46,FALSE,21,59.9344683952,NA,"American English","VSH_Exp2","2016_Mar_23_1803",NA
"Recordings/bubu.wav","yes","b","b","u","yes","u","bubu","Training","bilabial","TrainingItems",0,70,70,42,NA,NA,NA,NA,NA,NA,NA,NA,NA,NA,46,FALSE,21,59.9344683952,NA,"American English","VSH_Exp2","2016_Mar_23_1803",NA
"Recordings/fisa.wav","no","f","s","i","no","a","fisa","Training","bilabial","TrainingItems",0,71,71,41,NA,NA,NA,NA,NA,NA,NA,NA,NA,NA,46,FALSE,21,59.9344683952,NA,"American English","VSH_Exp2","2016_Mar_23_1803",NA
"Recordings/titi.wav","no","t","t","i","yes","i","titi","Training","alveolar","TrainingItems",0,72,72,61,NA,NA,NA,NA,NA,NA,NA,NA,NA,NA,46,FALSE,21,59.9344683952,NA,"American English","VSH_Exp2","2016_Mar_23_1803",NA
"Recordings/sufa.wav","no","s","f","u","no","a","sufa","Training","alveolar","TrainingItems",0,73,73,25,NA,NA,NA,NA,NA,NA,NA,NA,NA,NA,46,FALSE,21,59.9344683952,NA,"American English","VSH_Exp2","2016_Mar_23_1803",NA
"Recordings/susa.wav","no","s","s","u","no","a","susa","Training","alveolar","TrainingItems",0,74,74,52,NA,NA,NA,NA,NA,NA,NA,NA,NA,NA,46,FALSE,21,59.9344683952,NA,"American English","VSH_Exp2","2016_Mar_23_1803",NA
"Recordings/zazi.wav","yes","z","z","a","no","i","zazi","Training","alveolar","TrainingItems",0,75,75,19,NA,NA,NA,NA,NA,NA,NA,NA,NA,NA,46,FALSE,21,59.9344683952,NA,"American English","VSH_Exp2","2016_Mar_23_1803",NA
"Recordings/dudi.wav","yes","d","d","u","yes","i","dudi","Training","alveolar","TrainingItems",0,76,76,89,NA,NA,NA,NA,NA,NA,NA,NA,NA,NA,46,FALSE,21,59.9344683952,NA,"American English","VSH_Exp2","2016_Mar_23_1803",NA
"Recordings/dabi.wav","yes","d","b","a","yes","i","dabi","Training","alveolar","TrainingItems",0,77,77,9,NA,NA,NA,NA,NA,NA,NA,NA,NA,NA,46,FALSE,21,59.9344683952,NA,"American English","VSH_Exp2","2016_Mar_23_1803",NA
"Recordings/zuza.wav","yes","z","z","u","no","a","zuza","Training","alveolar","TrainingItems",0,78,78,2,NA,NA,NA,NA,NA,NA,NA,NA,NA,NA,46,FALSE,21,59.9344683952,NA,"American English","VSH_Exp2","2016_Mar_23_1803",NA
"Recordings/dida.wav","yes","d","d","i","yes","a","dida","Training","alveolar","TrainingItems",0,79,79,44,NA,NA,NA,NA,NA,NA,NA,NA,NA,NA,46,FALSE,21,59.9344683952,NA,"American English","VSH_Exp2","2016_Mar_23_1803",NA
"Recordings/biba.wav","yes","b","b","i","yes","a","biba","Training","bilabial","TrainingItems",0,80,80,31,NA,NA,NA,NA,NA,NA,NA,NA,NA,NA,46,FALSE,21,59.9344683952,NA,"American English","VSH_Exp2","2016_Mar_23_1803",NA
"Recordings/buda.wav","yes","b","d","u","yes","a","buda","Training","bilabial","TrainingItems",0,81,81,60,NA,NA,NA,NA,NA,NA,NA,NA,NA,NA,46,FALSE,21,59.9344683952,NA,"American English","VSH_Exp2","2016_Mar_23_1803",NA
"Recordings/bidi.wav","yes","b","d","i","yes","i","bidi","Training","bilabial","TrainingItems",0,82,82,83,NA,NA,NA,NA,NA,NA,NA,NA,NA,NA,46,FALSE,21,59.9344683952,NA,"American English","VSH_Exp2","2016_Mar_23_1803",NA
"Recordings/vizi.wav","yes","v","z","i","no","i","vizi","Training","bilabial","TrainingItems",0,83,83,6,NA,NA,NA,NA,NA,NA,NA,NA,NA,NA,46,FALSE,21,59.9344683952,NA,"American English","VSH_Exp2","2016_Mar_23_1803",NA
"Recordings/pipi.wav","no","p","p","i","yes","i","pipi","Training","bilabial","TrainingItems",0,84,84,34,NA,NA,NA,NA,NA,NA,NA,NA,NA,NA,46,FALSE,21,59.9344683952,NA,"American English","VSH_Exp2","2016_Mar_23_1803",NA
"Recordings/dibu.wav","yes","d","b","i","yes","u","dibu","Training","alveolar","TrainingItems",0,85,85,93,NA,NA,NA,NA,NA,NA,NA,NA,NA,NA,46,FALSE,21,59.9344683952,NA,"American English","VSH_Exp2","2016_Mar_23_1803",NA
"Recordings/duba.wav","yes","d","b","u","yes","a","duba","Training","alveolar","TrainingItems",0,86,86,8,NA,NA,NA,NA,NA,NA,NA,NA,NA,NA,46,FALSE,21,59.9344683952,NA,"American English","VSH_Exp2","2016_Mar_23_1803",NA
"Recordings/papu.wav","no","p","p","a","yes","u","papu","Training","bilabial","TrainingItems",0,87,87,11,NA,NA,NA,NA,NA,NA,NA,NA,NA,NA,46,FALSE,21,59.9344683952,NA,"American English","VSH_Exp2","2016_Mar_23_1803",NA
"Recordings/sasu.wav","no","s","s","a","no","u","sasu","Training","alveolar","TrainingItems",0,88,88,13,NA,NA,NA,NA,NA,NA,NA,NA,NA,NA,46,FALSE,21,59.9344683952,NA,"American English","VSH_Exp2","2016_Mar_23_1803",NA
"Recordings/vuza.wav","yes","v","z","u","no","a","vuza","Training","bilabial","TrainingItems",0,89,89,95,NA,NA,NA,NA,NA,NA,NA,NA,NA,NA,46,FALSE,21,59.9344683952,NA,"American English","VSH_Exp2","2016_Mar_23_1803",NA
"Recordings/viva.wav","yes","v","v","i","no","a","viva","Training","bilabial","TrainingItems",0,90,90,69,NA,NA,NA,NA,NA,NA,NA,NA,NA,NA,46,FALSE,21,59.9344683952,NA,"American English","VSH_Exp2","2016_Mar_23_1803",NA
"Recordings/vuva.wav","yes","v","v","u","no","a","vuva","Training","bilabial","TrainingItems",0,91,91,88,NA,NA,NA,NA,NA,NA,NA,NA,NA,NA,46,FALSE,21,59.9344683952,NA,"American English","VSH_Exp2","2016_Mar_23_1803",NA
"Recordings/fafi.wav","no","f","f","a","no","i","fafi","Training","bilabial","TrainingItems",0,92,92,85,NA,NA,NA,NA,NA,NA,NA,NA,NA,NA,46,FALSE,21,59.9344683952,NA,"American English","VSH_Exp2","2016_Mar_23_1803",NA
"Recordings/ziza.wav","yes","z","z","i","no","a","ziza","Training","alveolar","TrainingItems",0,93,93,84,NA,NA,NA,NA,NA,NA,NA,NA,NA,NA,46,FALSE,21,59.9344683952,NA,"American English","VSH_Exp2","2016_Mar_23_1803",NA
"Recordings/zuzi.wav","yes","z","z","u","no","i","zuzi","Training","alveolar","TrainingItems",0,94,94,38,NA,NA,NA,NA,NA,NA,NA,NA,NA,NA,46,FALSE,21,59.9344683952,NA,"American English","VSH_Exp2","2016_Mar_23_1803",NA
"Recordings/zazu.wav","yes","z","z","a","no","u","zazu","Training","alveolar","TrainingItems",0,95,95,57,NA,NA,NA,NA,NA,NA,NA,NA,NA,NA,46,FALSE,21,59.9344683952,NA,"American English","VSH_Exp2","2016_Mar_23_1803",NA
"Recordings/susi.wav","no","s","s","u","no","i","susi","Training","alveolar","TrainingItems",0,96,96,77,NA,NA,NA,NA,NA,NA,NA,NA,NA,NA,46,FALSE,21,59.9344683952,NA,"American English","VSH_Exp2","2016_Mar_23_1803",NA
"Recordings/fifu.wav","no","f","f","i","no","u","fifu","Training","bilabial","TrainingItems",0,97,97,75,NA,NA,NA,NA,NA,NA,NA,NA,NA,NA,46,FALSE,21,59.9344683952,NA,"American English","VSH_Exp2","2016_Mar_23_1803",NA
"Recordings/dubi.wav","yes","d","b","u","yes","i","dubi","Training","alveolar","TrainingItems",0,98,98,63,NA,NA,NA,NA,NA,NA,NA,NA,NA,NA,46,FALSE,21,59.9344683952,NA,"American English","VSH_Exp2","2016_Mar_23_1803",NA
"Recordings/pupa.wav","no","p","p","u","yes","a","pupa","Training","bilabial","TrainingItems",0,99,99,76,NA,NA,NA,NA,NA,NA,NA,NA,NA,NA,46,FALSE,21,59.9344683952,NA,"American English","VSH_Exp2","2016_Mar_23_1803",NA
"Recordings/sasa.wav","no","s","s","a","no","a","sasa","Training","alveolar","TrainingItems",1,0,100,94,NA,NA,NA,NA,NA,NA,NA,NA,NA,NA,46,FALSE,21,59.9344683952,NA,"American English","VSH_Exp2","2016_Mar_23_1803",NA
"Recordings/sasu.wav","no","s","s","a","no","u","sasu","Training","alveolar","TrainingItems",1,1,101,13,NA,NA,NA,NA,NA,NA,NA,NA,NA,NA,46,FALSE,21,59.9344683952,NA,"American English","VSH_Exp2","2016_Mar_23_1803",NA
"Recordings/fifu.wav","no","f","f","i","no","u","fifu","Training","bilabial","TrainingItems",1,2,102,75,NA,NA,NA,NA,NA,NA,NA,NA,NA,NA,46,FALSE,21,59.9344683952,NA,"American English","VSH_Exp2","2016_Mar_23_1803",NA
"Recordings/vavu.wav","yes","v","v","a","no","u","vavu","Training","bilabial","TrainingItems",1,3,103,40,NA,NA,NA,NA,NA,NA,NA,NA,NA,NA,46,FALSE,21,59.9344683952,NA,"American English","VSH_Exp2","2016_Mar_23_1803",NA
"Recordings/vizi.wav","yes","v","z","i","no","i","vizi","Training","bilabial","TrainingItems",1,4,104,6,NA,NA,NA,NA,NA,NA,NA,NA,NA,NA,46,FALSE,21,59.9344683952,NA,"American English","VSH_Exp2","2016_Mar_23_1803",NA
"Recordings/didu.wav","yes","d","d","i","yes","u","didu","Training","alveolar","TrainingItems",1,5,105,98,NA,NA,NA,NA,NA,NA,NA,NA,NA,NA,46,FALSE,21,59.9344683952,NA,"American English","VSH_Exp2","2016_Mar_23_1803",NA
"Recordings/pupu.wav","no","p","p","u","yes","u","pupu","Training","bilabial","TrainingItems",1,6,106,1,NA,NA,NA,NA,NA,NA,NA,NA,NA,NA,46,FALSE,21,59.9344683952,NA,"American English","VSH_Exp2","2016_Mar_23_1803",NA
"Recordings/fisi.wav","no","f","s","i","no","i","fisi","Training","bilabial","TrainingItems",1,7,107,58,NA,NA,NA,NA,NA,NA,NA,NA,NA,NA,46,FALSE,21,59.9344683952,NA,"American English","VSH_Exp2","2016_Mar_23_1803",NA
"Recordings/dabi.wav","yes","d","b","a","yes","i","dabi","Training","alveolar","TrainingItems",1,8,108,9,NA,NA,NA,NA,NA,NA,NA,NA,NA,NA,46,FALSE,21,59.9344683952,NA,"American English","VSH_Exp2","2016_Mar_23_1803",NA
"Recordings/bibi.wav","yes","b","b","i","yes","i","bibi","Training","bilabial","TrainingItems",1,9,109,82,NA,NA,NA,NA,NA,NA,NA,NA,NA,NA,46,FALSE,21,59.9344683952,NA,"American English","VSH_Exp2","2016_Mar_23_1803",NA
"Recordings/zavu.wav","yes","z","v","a","no","u","zavu","Training","alveolar","TrainingItems",1,10,110,73,NA,NA,NA,NA,NA,NA,NA,NA,NA,NA,46,FALSE,21,59.9344683952,NA,"American English","VSH_Exp2","2016_Mar_23_1803",NA
"Recordings/pupi.wav","no","p","p","u","yes","i","pupi","Training","bilabial","TrainingItems",1,11,111,68,NA,NA,NA,NA,NA,NA,NA,NA,NA,NA,46,FALSE,21,59.9344683952,NA,"American English","VSH_Exp2","2016_Mar_23_1803",NA
"Recordings/zivi.wav","yes","z","v","i","no","i","zivi","Training","alveolar","TrainingItems",1,12,112,15,NA,NA,NA,NA,NA,NA,NA,NA,NA,NA,46,FALSE,21,59.9344683952,NA,"American English","VSH_Exp2","2016_Mar_23_1803",NA
"Recordings/bidi.wav","yes","b","d","i","yes","i","bidi","Training","bilabial","TrainingItems",1,13,113,83,NA,NA,NA,NA,NA,NA,NA,NA,NA,NA,46,FALSE,21,59.9344683952,NA,"American English","VSH_Exp2","2016_Mar_23_1803",NA
"Recordings/baba.wav","yes","b","b","a","yes","a","baba","Training","bilabial","TrainingItems",1,14,114,29,NA,NA,NA,NA,NA,NA,NA,NA,NA,NA,46,FALSE,21,59.9344683952,NA,"American English","VSH_Exp2","2016_Mar_23_1803",NA
"Recordings/fusu.wav","no","f","s","u","no","u","fusu","Training","bilabial","TrainingItems",1,15,115,33,NA,NA,NA,NA,NA,NA,NA,NA,NA,NA,46,FALSE,21,59.9344683952,NA,"American English","VSH_Exp2","2016_Mar_23_1803",NA
"Recordings/fifa.wav","no","f","f","i","no","a","fifa","Training","bilabial","TrainingItems",1,16,116,32,NA,NA,NA,NA,NA,NA,NA,NA,NA,NA,46,FALSE,21,59.9344683952,NA,"American English","VSH_Exp2","2016_Mar_23_1803",NA
"Recordings/vavi.wav","yes","v","v","a","no","i","vavi","Training","bilabial","TrainingItems",1,17,117,70,NA,NA,NA,NA,NA,NA,NA,NA,NA,NA,46,FALSE,21,59.9344683952,NA,"American English","VSH_Exp2","2016_Mar_23_1803",NA
"Recordings/badi.wav","yes","b","d","a","yes","i","badi","Training","bilabial","TrainingItems",1,18,118,64,NA,NA,NA,NA,NA,NA,NA,NA,NA,NA,46,FALSE,21,59.9344683952,NA,"American English","VSH_Exp2","2016_Mar_23_1803",NA
"Recordings/zavi.wav","yes","z","v","a","no","i","zavi","Training","alveolar","TrainingItems",1,19,119,49,NA,NA,NA,NA,NA,NA,NA,NA,NA,NA,46,FALSE,21,59.9344683952,NA,"American English","VSH_Exp2","2016_Mar_23_1803",NA
"Recordings/zizu.wav","yes","z","z","i","no","u","zizu","Training","alveolar","TrainingItems",1,20,120,36,NA,NA,NA,NA,NA,NA,NA,NA,NA,NA,46,FALSE,21,59.9344683952,NA,"American English","VSH_Exp2","2016_Mar_23_1803",NA
"Recordings/bibu.wav","yes","b","b","i","yes","u","bibu","Training","bilabial","TrainingItems",1,21,121,16,NA,NA,NA,NA,NA,NA,NA,NA,NA,NA,46,FALSE,21,59.9344683952,NA,"American English","VSH_Exp2","2016_Mar_23_1803",NA
"Recordings/sufa.wav","no","s","f","u","no","a","sufa","Training","alveolar","TrainingItems",1,22,122,25,NA,NA,NA,NA,NA,NA,NA,NA,NA,NA,46,FALSE,21,59.9344683952,NA,"American English","VSH_Exp2","2016_Mar_23_1803",NA
"Recordings/dubi.wav","yes","d","b","u","yes","i","dubi","Training","alveolar","TrainingItems",1,23,123,63,NA,NA,NA,NA,NA,NA,NA,NA,NA,NA,46,FALSE,21,59.9344683952,NA,"American English","VSH_Exp2","2016_Mar_23_1803",NA
"Recordings/zuzu.wav","yes","z","z","u","no","u","zuzu","Training","alveolar","TrainingItems",1,24,124,37,NA,NA,NA,NA,NA,NA,NA,NA,NA,NA,46,FALSE,21,59.9344683952,NA,"American English","VSH_Exp2","2016_Mar_23_1803",NA
"Recordings/babu.wav","yes","b","b","a","yes","u","babu","Training","bilabial","TrainingItems",1,25,125,91,NA,NA,NA,NA,NA,NA,NA,NA,NA,NA,46,FALSE,21,59.9344683952,NA,"American English","VSH_Exp2","2016_Mar_23_1803",NA
"Recordings/vivi.wav","yes","v","v","i","no","i","vivi","Training","bilabial","TrainingItems",1,26,126,27,NA,NA,NA,NA,NA,NA,NA,NA,NA,NA,46,FALSE,21,59.9344683952,NA,"American English","VSH_Exp2","2016_Mar_23_1803",NA
"Recordings/dudi.wav","yes","d","d","u","yes","i","dudi","Training","alveolar","TrainingItems",1,27,127,89,NA,NA,NA,NA,NA,NA,NA,NA,NA,NA,46,FALSE,21,59.9344683952,NA,"American English","VSH_Exp2","2016_Mar_23_1803",NA
"Recordings/sifu.wav","no","s","f","i","no","u","sifu","Training","alveolar","TrainingItems",1,28,128,18,NA,NA,NA,NA,NA,NA,NA,NA,NA,NA,46,FALSE,21,59.9344683952,NA,"American English","VSH_Exp2","2016_Mar_23_1803",NA
"Recordings/vuzi.wav","yes","v","z","u","no","i","vuzi","Training","bilabial","TrainingItems",1,29,129,28,NA,NA,NA,NA,NA,NA,NA,NA,NA,NA,46,FALSE,21,59.9344683952,NA,"American English","VSH_Exp2","2016_Mar_23_1803",NA
"Recordings/vazi.wav","yes","v","z","a","no","i","vazi","Training","bilabial","TrainingItems",1,30,130,24,NA,NA,NA,NA,NA,NA,NA,NA,NA,NA,46,FALSE,21,59.9344683952,NA,"American English","VSH_Exp2","2016_Mar_23_1803",NA
"Recordings/fisa.wav","no","f","s","i","no","a","fisa","Training","bilabial","TrainingItems",1,31,131,41,NA,NA,NA,NA,NA,NA,NA,NA,NA,NA,46,FALSE,21,59.9344683952,NA,"American English","VSH_Exp2","2016_Mar_23_1803",NA
"Recordings/zuvi.wav","yes","z","v","u","no","i","zuvi","Training","alveolar","TrainingItems",1,32,132,74,NA,NA,NA,NA,NA,NA,NA,NA,NA,NA,46,FALSE,21,59.9344683952,NA,"American English","VSH_Exp2","2016_Mar_23_1803",NA
"Recordings/vuzu.wav","yes","v","z","u","no","u","vuzu","Training","bilabial","TrainingItems",1,33,133,0,NA,NA,NA,NA,NA,NA,NA,NA,NA,NA,46,FALSE,21,59.9344683952,NA,"American English","VSH_Exp2","2016_Mar_23_1803",NA
"Recordings/sisu.wav","no","s","s","i","no","u","sisu","Training","alveolar","TrainingItems",1,34,134,20,NA,NA,NA,NA,NA,NA,NA,NA,NA,NA,46,FALSE,21,59.9344683952,NA,"American English","VSH_Exp2","2016_Mar_23_1803",NA
"Recordings/pipi.wav","no","p","p","i","yes","i","pipi","Training","bilabial","TrainingItems",1,35,135,34,NA,NA,NA,NA,NA,NA,NA,NA,NA,NA,46,FALSE,21,59.9344683952,NA,"American English","VSH_Exp2","2016_Mar_23_1803",NA
"Recordings/dida.wav","yes","d","d","i","yes","a","dida","Training","alveolar","TrainingItems",1,36,136,44,NA,NA,NA,NA,NA,NA,NA,NA,NA,NA,46,FALSE,21,59.9344683952,NA,"American English","VSH_Exp2","2016_Mar_23_1803",NA
"Recordings/zuva.wav","yes","z","v","u","no","a","zuva","Training","alveolar","TrainingItems",1,37,137,96,NA,NA,NA,NA,NA,NA,NA,NA,NA,NA,46,FALSE,21,59.9344683952,NA,"American English","VSH_Exp2","2016_Mar_23_1803",NA
"Recordings/vizu.wav","yes","v","z","i","no","u","vizu","Training","bilabial","TrainingItems",1,38,138,67,NA,NA,NA,NA,NA,NA,NA,NA,NA,NA,46,FALSE,21,59.9344683952,NA,"American English","VSH_Exp2","2016_Mar_23_1803",NA
"Recordings/susa.wav","no","s","s","u","no","a","susa","Training","alveolar","TrainingItems",1,39,139,52,NA,NA,NA,NA,NA,NA,NA,NA,NA,NA,46,FALSE,21,59.9344683952,NA,"American English","VSH_Exp2","2016_Mar_23_1803",NA
"Recordings/biba.wav","yes","b","b","i","yes","a","biba","Training","bilabial","TrainingItems",1,40,140,31,NA,NA,NA,NA,NA,NA,NA,NA,NA,NA,46,FALSE,21,59.9344683952,NA,"American English","VSH_Exp2","2016_Mar_23_1803",NA
"Recordings/dadu.wav","yes","d","d","a","yes","u","dadu","Training","alveolar","TrainingItems",1,41,141,55,NA,NA,NA,NA,NA,NA,NA,NA,NA,NA,46,FALSE,21,59.9344683952,NA,"American English","VSH_Exp2","2016_Mar_23_1803",NA
"Recordings/fisu.wav","no","f","s","i","no","u","fisu","Training","bilabial","TrainingItems",1,42,142,35,NA,NA,NA,NA,NA,NA,NA,NA,NA,NA,46,FALSE,21,59.9344683952,NA,"American English","VSH_Exp2","2016_Mar_23_1803",NA
"Recordings/vazu.wav","yes","v","z","a","no","u","vazu","Training","bilabial","TrainingItems",1,43,143,4,NA,NA,NA,NA,NA,NA,NA,NA,NA,NA,46,FALSE,21,59.9344683952,NA,"American English","VSH_Exp2","2016_Mar_23_1803",NA
"Recordings/tutu.wav","no","t","t","u","yes","u","tutu","Training","alveolar","TrainingItems",1,44,144,43,NA,NA,NA,NA,NA,NA,NA,NA,NA,NA,46,FALSE,21,59.9344683952,NA,"American English","VSH_Exp2","2016_Mar_23_1803",NA
"Recordings/zuvu.wav","yes","z","v","u","no","u","zuvu","Training","alveolar","TrainingItems",1,45,145,78,NA,NA,NA,NA,NA,NA,NA,NA,NA,NA,46,FALSE,21,59.9344683952,NA,"American English","VSH_Exp2","2016_Mar_23_1803",NA
"Recordings/sisa.wav","no","s","s","i","no","a","sisa","Training","alveolar","TrainingItems",1,46,146,45,NA,NA,NA,NA,NA,NA,NA,NA,NA,NA,46,FALSE,21,59.9344683952,NA,"American English","VSH_Exp2","2016_Mar_23_1803",NA
"Recordings/vuva.wav","yes","v","v","u","no","a","vuva","Training","bilabial","TrainingItems",1,47,147,88,NA,NA,NA,NA,NA,NA,NA,NA,NA,NA,46,FALSE,21,59.9344683952,NA,"American English","VSH_Exp2","2016_Mar_23_1803",NA
"Recordings/sifi.wav","no","s","f","i","no","i","sifi","Training","alveolar","TrainingItems",1,48,148,14,NA,NA,NA,NA,NA,NA,NA,NA,NA,NA,46,FALSE,21,59.9344683952,NA,"American English","VSH_Exp2","2016_Mar_23_1803",NA
"Recordings/bubu.wav","yes","b","b","u","yes","u","bubu","Training","bilabial","TrainingItems",1,49,149,42,NA,NA,NA,NA,NA,NA,NA,NA,NA,NA,46,FALSE,21,59.9344683952,NA,"American English","VSH_Exp2","2016_Mar_23_1803",NA
"Recordings/bida.wav","yes","b","d","i","yes","a","bida","Training","bilabial","TrainingItems",1,50,150,90,NA,NA,NA,NA,NA,NA,NA,NA,NA,NA,46,FALSE,21,59.9344683952,NA,"American English","VSH_Exp2","2016_Mar_23_1803",NA
"Recordings/zuza.wav","yes","z","z","u","no","a","zuza","Training","alveolar","TrainingItems",1,51,151,2,NA,NA,NA,NA,NA,NA,NA,NA,NA,NA,46,FALSE,21,59.9344683952,NA,"American English","VSH_Exp2","2016_Mar_23_1803",NA
"Recordings/budu.wav","yes","b","d","u","yes","u","budu","Training","bilabial","TrainingItems",1,52,152,21,NA,NA,NA,NA,NA,NA,NA,NA,NA,NA,46,FALSE,21,59.9344683952,NA,"American English","VSH_Exp2","2016_Mar_23_1803",NA
"Recordings/zazu.wav","yes","z","z","a","no","u","zazu","Training","alveolar","TrainingItems",1,53,153,57,NA,NA,NA,NA,NA,NA,NA,NA,NA,NA,46,FALSE,21,59.9344683952,NA,"American English","VSH_Exp2","2016_Mar_23_1803",NA
"Recordings/fasa.wav","no","f","s","a","no","a","fasa","Training","bilabial","TrainingItems",1,54,154,10,NA,NA,NA,NA,NA,NA,NA,NA,NA,NA,46,FALSE,21,59.9344683952,NA,"American English","VSH_Exp2","2016_Mar_23_1803",NA
"Recordings/tuti.wav","no","t","t","u","yes","i","tuti","Training","alveolar","TrainingItems",1,55,155,81,NA,NA,NA,NA,NA,NA,NA,NA,NA,NA,46,FALSE,21,59.9344683952,NA,"American English","VSH_Exp2","2016_Mar_23_1803",NA
"Recordings/didi.wav","yes","d","d","i","yes","i","didi","Training","alveolar","TrainingItems",1,56,156,87,NA,NA,NA,NA,NA,NA,NA,NA,NA,NA,46,FALSE,21,59.9344683952,NA,"American English","VSH_Exp2","2016_Mar_23_1803",NA
"Recordings/zivu.wav","yes","z","v","i","no","u","zivu","Training","alveolar","TrainingItems",1,57,157,65,NA,NA,NA,NA,NA,NA,NA,NA,NA,NA,46,FALSE,21,59.9344683952,NA,"American English","VSH_Exp2","2016_Mar_23_1803",NA
"Recordings/dibu.wav","yes","d","b","i","yes","u","dibu","Training","alveolar","TrainingItems",1,58,158,93,NA,NA,NA,NA,NA,NA,NA,NA,NA,NA,46,FALSE,21,59.9344683952,NA,"American English","VSH_Exp2","2016_Mar_23_1803",NA
"Recordings/fafi.wav","no","f","f","a","no","i","fafi","Training","bilabial","TrainingItems",1,59,159,85,NA,NA,NA,NA,NA,NA,NA,NA,NA,NA,46,FALSE,21,59.9344683952,NA,"American English","VSH_Exp2","2016_Mar_23_1803",NA
"Recordings/tata.wav","no","t","t","a","yes","a","tata","Training","alveolar","TrainingItems",1,60,160,71,NA,NA,NA,NA,NA,NA,NA,NA,NA,NA,46,FALSE,21,59.9344683952,NA,"American English","VSH_Exp2","2016_Mar_23_1803",NA
"Recordings/susi.wav","no","s","s","u","no","i","susi","Training","alveolar","TrainingItems",1,61,161,77,NA,NA,NA,NA,NA,NA,NA,NA,NA,NA,46,FALSE,21,59.9344683952,NA,"American English","VSH_Exp2","2016_Mar_23_1803",NA
"Recordings/titi.wav","no","t","t","i","yes","i","titi","Training","alveolar","TrainingItems",1,62,162,61,NA,NA,NA,NA,NA,NA,NA,NA,NA,NA,46,FALSE,21,59.9344683952,NA,"American English","VSH_Exp2","2016_Mar_23_1803",NA
"Recordings/diba.wav","yes","d","b","i","yes","a","diba","Training","alveolar","TrainingItems",1,63,163,3,NA,NA,NA,NA,NA,NA,NA,NA,NA,NA,46,FALSE,21,59.9344683952,NA,"American English","VSH_Exp2","2016_Mar_23_1803",NA
"Recordings/sifa.wav","no","s","f","i","no","a","sifa","Training","alveolar","TrainingItems",1,64,164,92,NA,NA,NA,NA,NA,NA,NA,NA,NA,NA,46,FALSE,21,59.9344683952,NA,"American English","VSH_Exp2","2016_Mar_23_1803",NA
"Recordings/zizi.wav","yes","z","z","i","no","i","zizi","Training","alveolar","TrainingItems",1,65,165,46,NA,NA,NA,NA,NA,NA,NA,NA,NA,NA,46,FALSE,21,59.9344683952,NA,"American English","VSH_Exp2","2016_Mar_23_1803",NA
"Recordings/bubi.wav","yes","b","b","u","yes","i","bubi","Training","bilabial","TrainingItems",1,66,166,56,NA,NA,NA,NA,NA,NA,NA,NA,NA,NA,46,FALSE,21,59.9344683952,NA,"American English","VSH_Exp2","2016_Mar_23_1803",NA
"Recordings/pipa.wav","no","p","p","i","yes","a","pipa","Training","bilabial","TrainingItems",1,67,167,80,NA,NA,NA,NA,NA,NA,NA,NA,NA,NA,46,FALSE,21,59.9344683952,NA,"American English","VSH_Exp2","2016_Mar_23_1803",NA
"Recordings/fufi.wav","no","f","f","u","no","i","fufi","Training","bilabial","TrainingItems",1,68,168,12,NA,NA,NA,NA,NA,NA,NA,NA,NA,NA,46,FALSE,21,59.9344683952,NA,"American English","VSH_Exp2","2016_Mar_23_1803",NA
"Recordings/fufa.wav","no","f","f","u","no","a","fufa","Training","bilabial","TrainingItems",1,69,169,97,NA,NA,NA,NA,NA,NA,NA,NA,NA,NA,46,FALSE,21,59.9344683952,NA,"American English","VSH_Exp2","2016_Mar_23_1803",NA
"Recordings/buba.wav","yes","b","b","u","yes","a","buba","Training","bilabial","TrainingItems",1,70,170,99,NA,NA,NA,NA,NA,NA,NA,NA,NA,NA,46,FALSE,21,59.9344683952,NA,"American English","VSH_Exp2","2016_Mar_23_1803",NA
"Recordings/sufu.wav","no","s","f","u","no","u","sufu","Training","alveolar","TrainingItems",1,71,171,79,NA,NA,NA,NA,NA,NA,NA,NA,NA,NA,46,FALSE,21,59.9344683952,NA,"American English","VSH_Exp2","2016_Mar_23_1803",NA
"Recordings/duba.wav","yes","d","b","u","yes","a","duba","Training","alveolar","TrainingItems",1,72,172,8,NA,NA,NA,NA,NA,NA,NA,NA,NA,NA,46,FALSE,21,59.9344683952,NA,"American English","VSH_Exp2","2016_Mar_23_1803",NA
"Recordings/vuvu.wav","yes","v","v","u","no","u","vuvu","Training","bilabial","TrainingItems",1,73,173,86,NA,NA,NA,NA,NA,NA,NA,NA,NA,NA,46,FALSE,21,59.9344683952,NA,"American English","VSH_Exp2","2016_Mar_23_1803",NA
"Recordings/zaza.wav","yes","z","z","a","no","a","zaza","Training","alveolar","TrainingItems",1,74,174,7,NA,NA,NA,NA,NA,NA,NA,NA,NA,NA,46,FALSE,21,59.9344683952,NA,"American English","VSH_Exp2","2016_Mar_23_1803",NA
"Recordings/fafu.wav","no","f","f","a","no","u","fafu","Training","bilabial","TrainingItems",1,75,175,17,NA,NA,NA,NA,NA,NA,NA,NA,NA,NA,46,FALSE,21,59.9344683952,NA,"American English","VSH_Exp2","2016_Mar_23_1803",NA
"Recordings/zuzi.wav","yes","z","z","u","no","i","zuzi","Training","alveolar","TrainingItems",1,76,176,38,NA,NA,NA,NA,NA,NA,NA,NA,NA,NA,46,FALSE,21,59.9344683952,NA,"American English","VSH_Exp2","2016_Mar_23_1803",NA
"Recordings/papu.wav","no","p","p","a","yes","u","papu","Training","bilabial","TrainingItems",1,77,177,11,NA,NA,NA,NA,NA,NA,NA,NA,NA,NA,46,FALSE,21,59.9344683952,NA,"American English","VSH_Exp2","2016_Mar_23_1803",NA
"Recordings/tita.wav","no","t","t","i","yes","a","tita","Training","alveolar","TrainingItems",1,78,178,62,NA,NA,NA,NA,NA,NA,NA,NA,NA,NA,46,FALSE,21,59.9344683952,NA,"American English","VSH_Exp2","2016_Mar_23_1803",NA
"Recordings/viva.wav","yes","v","v","i","no","a","viva","Training","bilabial","TrainingItems",1,79,179,69,NA,NA,NA,NA,NA,NA,NA,NA,NA,NA,46,FALSE,21,59.9344683952,NA,"American English","VSH_Exp2","2016_Mar_23_1803",NA
"Recordings/vivu.wav","yes","v","v","i","no","u","vivu","Training","bilabial","TrainingItems",1,80,180,22,NA,NA,NA,NA,NA,NA,NA,NA,NA,NA,46,FALSE,21,59.9344683952,NA,"American English","VSH_Exp2","2016_Mar_23_1803",NA
"Recordings/safu.wav","no","s","f","a","no","u","safu","Training","alveolar","TrainingItems",1,81,181,5,NA,NA,NA,NA,NA,NA,NA,NA,NA,NA,46,FALSE,21,59.9344683952,NA,"American English","VSH_Exp2","2016_Mar_23_1803",NA
"Recordings/fufu.wav","no","f","f","u","no","u","fufu","Training","bilabial","TrainingItems",1,82,182,26,NA,NA,NA,NA,NA,NA,NA,NA,NA,NA,46,FALSE,21,59.9344683952,NA,"American English","VSH_Exp2","2016_Mar_23_1803",NA
"Recordings/fasu.wav","no","f","s","a","no","u","fasu","Training","bilabial","TrainingItems",1,83,183,72,NA,NA,NA,NA,NA,NA,NA,NA,NA,NA,46,FALSE,21,59.9344683952,NA,"American English","VSH_Exp2","2016_Mar_23_1803",NA
"Recordings/fafa.wav","no","f","f","a","no","a","fafa","Training","bilabial","TrainingItems",1,84,184,66,NA,NA,NA,NA,NA,NA,NA,NA,NA,NA,46,FALSE,21,59.9344683952,NA,"American English","VSH_Exp2","2016_Mar_23_1803",NA
"Recordings/fasi.wav","no","f","s","a","no","i","fasi","Training","bilabial","TrainingItems",1,85,185,51,NA,NA,NA,NA,NA,NA,NA,NA,NA,NA,46,FALSE,21,59.9344683952,NA,"American English","VSH_Exp2","2016_Mar_23_1803",NA
"Recordings/bidu.wav","yes","b","d","i","yes","u","bidu","Training","bilabial","TrainingItems",1,86,186,23,NA,NA,NA,NA,NA,NA,NA,NA,NA,NA,46,FALSE,21,59.9344683952,NA,"American English","VSH_Exp2","2016_Mar_23_1803",NA
"Recordings/dubu.wav","yes","d","b","u","yes","u","dubu","Training","alveolar","TrainingItems",1,87,187,39,NA,NA,NA,NA,NA,NA,NA,NA,NA,NA,46,FALSE,21,59.9344683952,NA,"American English","VSH_Exp2","2016_Mar_23_1803",NA
"Recordings/pupa.wav","no","p","p","u","yes","a","pupa","Training","bilabial","TrainingItems",1,88,188,76,NA,NA,NA,NA,NA,NA,NA,NA,NA,NA,46,FALSE,21,59.9344683952,NA,"American English","VSH_Exp2","2016_Mar_23_1803",NA
"Recordings/pipu.wav","no","p","p","i","yes","u","pipu","Training","bilabial","TrainingItems",1,89,189,30,NA,NA,NA,NA,NA,NA,NA,NA,NA,NA,46,FALSE,21,59.9344683952,NA,"American English","VSH_Exp2","2016_Mar_23_1803",NA
"Recordings/papa.wav","no","p","p","a","yes","a","papa","Training","bilabial","TrainingItems",1,90,190,50,NA,NA,NA,NA,NA,NA,NA,NA,NA,NA,46,FALSE,21,59.9344683952,NA,"American English","VSH_Exp2","2016_Mar_23_1803",NA
"Recordings/papi.wav","no","p","p","a","yes","i","papi","Training","bilabial","TrainingItems",1,91,191,53,NA,NA,NA,NA,NA,NA,NA,NA,NA,NA,46,FALSE,21,59.9344683952,NA,"American English","VSH_Exp2","2016_Mar_23_1803",NA
"Recordings/buda.wav","yes","b","d","u","yes","a","buda","Training","bilabial","TrainingItems",1,92,192,60,NA,NA,NA,NA,NA,NA,NA,NA,NA,NA,46,FALSE,21,59.9344683952,NA,"American English","VSH_Exp2","2016_Mar_23_1803",NA
"Recordings/ziza.wav","yes","z","z","i","no","a","ziza","Training","alveolar","TrainingItems",1,93,193,84,NA,NA,NA,NA,NA,NA,NA,NA,NA,NA,46,FALSE,21,59.9344683952,NA,"American English","VSH_Exp2","2016_Mar_23_1803",NA
"Recordings/budi.wav","yes","b","d","u","yes","i","budi","Training","bilabial","TrainingItems",1,94,194,48,NA,NA,NA,NA,NA,NA,NA,NA,NA,NA,46,FALSE,21,59.9344683952,NA,"American English","VSH_Exp2","2016_Mar_23_1803",NA
"Recordings/daba.wav","yes","d","b","a","yes","a","daba","Training","alveolar","TrainingItems",1,95,195,54,NA,NA,NA,NA,NA,NA,NA,NA,NA,NA,46,FALSE,21,59.9344683952,NA,"American English","VSH_Exp2","2016_Mar_23_1803",NA
"Recordings/vuza.wav","yes","v","z","u","no","a","vuza","Training","bilabial","TrainingItems",1,96,196,95,NA,NA,NA,NA,NA,NA,NA,NA,NA,NA,46,FALSE,21,59.9344683952,NA,"American English","VSH_Exp2","2016_Mar_23_1803",NA
"Recordings/titu.wav","no","t","t","i","yes","u","titu","Training","alveolar","TrainingItems",1,97,197,59,NA,NA,NA,NA,NA,NA,NA,NA,NA,NA,46,FALSE,21,59.9344683952,NA,"American English","VSH_Exp2","2016_Mar_23_1803",NA
"Recordings/zazi.wav","yes","z","z","a","no","i","zazi","Training","alveolar","TrainingItems",1,98,198,19,NA,NA,NA,NA,NA,NA,NA,NA,NA,NA,46,FALSE,21,59.9344683952,NA,"American English","VSH_Exp2","2016_Mar_23_1803",NA
"Recordings/fusi.wav","no","f","s","u","no","i","fusi","Training","bilabial","TrainingItems",1,99,199,47,NA,NA,NA,NA,NA,NA,NA,NA,NA,NA,46,FALSE,21,59.9344683952,NA,"American English","VSH_Exp2","2016_Mar_23_1803",NA
NA,NA,NA,NA,NA,NA,NA,NA,NA,NA,NA,NA,NA,NA,NA,NA,NA,NA,NA,NA,NA,"space",3.90493702888,NA,NA,46,FALSE,21,59.9344683952,NA,"American English","VSH_Exp2","2016_Mar_23_1803",NA
"Recordings/tiba.wav","no","t","b","i","yes","a","tiba","Controls","alveolar","StopControls",NA,NA,NA,NA,0,0,0,34,NA,NA,NA,NA,"None","None",46,FALSE,21,59.9344683952,NA,"American English","VSH_Exp2","2016_Mar_23_1803",NA
"Recordings/didi.wav","yes","d","d","i","yes","i","didi","Test","alveolar","OldTestStimuli",NA,NA,NA,NA,0,1,1,7,NA,NA,NA,NA,"Yes","6.476",46,FALSE,21,59.9344683952,NA,"American English","VSH_Exp2","2016_Mar_23_1803",NA
"Recordings/patu.wav","no","p","t","a","yes","u","patu","Test","bilabial","NewConsTestStimuli",NA,NA,NA,NA,0,2,2,18,NA,NA,NA,NA,"Yes","1.621",46,FALSE,21,59.9344683952,NA,"American English","VSH_Exp2","2016_Mar_23_1803",NA
"Recordings/fafu.wav","no","f","f","a","no","u","fafu","Test","bilabial","OldTestStimuli",NA,NA,NA,NA,0,3,3,9,NA,NA,NA,NA,"Yes","1.039",46,FALSE,21,59.9344683952,NA,"American English","VSH_Exp2","2016_Mar_23_1803",NA
"Recordings/vupi.wav","yes","v","p","u","no","i","vupi","Controls","bilabial","NoPatternControls",NA,NA,NA,NA,0,4,4,50,NA,NA,NA,NA,"No","2.922",46,FALSE,21,59.9344683952,NA,"American English","VSH_Exp2","2016_Mar_23_1803",NA
"Recordings/vivu.wav","yes","v","v","i","no","u","vivu","Test","bilabial","OldTestStimuli",NA,NA,NA,NA,0,5,5,3,NA,NA,NA,NA,"Yes","1.555",46,FALSE,21,59.9344683952,NA,"American English","VSH_Exp2","2016_Mar_23_1803",NA
"Recordings/pita.wav","no","p","t","i","yes","a","pita","Test","bilabial","NewConsTestStimuli",NA,NA,NA,NA,0,6,6,13,NA,NA,NA,NA,"Yes","1.17",46,FALSE,21,59.9344683952,NA,"American English","VSH_Exp2","2016_Mar_23_1803",NA
"Recordings/pasu.wav","no","p","s","a","yes","u","pasu","Controls","bilabial","VoicingControls",NA,NA,NA,NA,0,7,7,41,NA,NA,NA,NA,"No","5.258",46,FALSE,21,59.9344683952,NA,"American English","VSH_Exp2","2016_Mar_23_1803",NA
"Recordings/daba.wav","yes","d","b","a","yes","a","daba","Test","alveolar","OldTestStimuli",NA,NA,NA,NA,0,8,8,5,NA,NA,NA,NA,"Yes","1.288",46,FALSE,21,59.9344683952,NA,"American English","VSH_Exp2","2016_Mar_23_1803",NA
"Recordings/zava.wav","yes","z","v","a","no","a","zava","Test","alveolar","NewWordTestStimuli",NA,NA,NA,NA,0,9,9,25,NA,NA,NA,NA,"No","1.286",46,FALSE,21,59.9344683952,NA,"American English","VSH_Exp2","2016_Mar_23_1803",NA
"Recordings/zafu.wav","yes","z","f","a","no","u","zafu","Controls","alveolar","StopControls",NA,NA,NA,NA,0,10,10,37,NA,NA,NA,NA,"No","3.004",46,FALSE,21,59.9344683952,NA,"American English","VSH_Exp2","2016_Mar_23_1803",NA
"Recordings/dapu.wav","yes","d","p","a","yes","u","dapu","Controls","alveolar","StopControls",NA,NA,NA,NA,0,11,11,33,NA,NA,NA,NA,"No","2.054",46,FALSE,21,59.9344683952,NA,"American English","VSH_Exp2","2016_Mar_23_1803",NA
"Recordings/dafi.wav","yes","d","f","a","yes","i","dafi","Controls","alveolar","NoPatternControls",NA,NA,NA,NA,0,12,12,59,NA,NA,NA,NA,"No","1.971",46,FALSE,21,59.9344683952,NA,"American English","VSH_Exp2","2016_Mar_23_1803",NA
"Recordings/vivi.wav","yes","v","v","i","no","i","vivi","Test","bilabial","OldTestStimuli",NA,NA,NA,NA,0,13,13,8,NA,NA,NA,NA,"Yes","1.338",46,FALSE,21,59.9344683952,NA,"American English","VSH_Exp2","2016_Mar_23_1803",NA
"Recordings/dabu.wav","yes","d","b","a","yes","u","dabu","Test","alveolar","NewWordTestStimuli",NA,NA,NA,NA,0,14,14,23,NA,NA,NA,NA,"Yes","0.804",46,FALSE,21,59.9344683952,NA,"American English","VSH_Exp2","2016_Mar_23_1803",NA
"Recordings/zusa.wav","yes","z","s","u","no","a","zusa","Controls","alveolar","StopControls",NA,NA,NA,NA,0,15,15,32,NA,NA,NA,NA,"No","2.756",46,FALSE,21,59.9344683952,NA,"American English","VSH_Exp2","2016_Mar_23_1803",NA
"Recordings/davu.wav","yes","d","v","a","yes","u","davu","Controls","alveolar","VoicingControls",NA,NA,NA,NA,0,16,16,43,NA,NA,NA,NA,"Yes","1.405",46,FALSE,21,59.9344683952,NA,"American English","VSH_Exp2","2016_Mar_23_1803",NA
"Recordings/duvi.wav","yes","d","v","u","yes","i","duvi","Controls","alveolar","VoicingControls",NA,NA,NA,NA,0,17,17,49,NA,NA,NA,NA,"Yes","0.92",46,FALSE,21,59.9344683952,NA,"American English","VSH_Exp2","2016_Mar_23_1803",NA
"Recordings/vuti.wav","yes","v","t","u","no","i","vuti","Controls","bilabial","NoPatternControls",NA,NA,NA,NA,0,18,18,56,NA,NA,NA,NA,"Yes","0.903",46,FALSE,21,59.9344683952,NA,"American English","VSH_Exp2","2016_Mar_23_1803",NA
"Recordings/tapi.wav","no","t","p","a","yes","i","tapi","Test","alveolar","NewConsTestStimuli",NA,NA,NA,NA,0,19,19,10,NA,NA,NA,NA,"Yes","0.835",46,FALSE,21,59.9344683952,NA,"American English","VSH_Exp2","2016_Mar_23_1803",NA
"Recordings/vuba.wav","yes","v","b","u","no","a","vuba","Controls","bilabial","VoicingControls",NA,NA,NA,NA,0,20,20,46,NA,NA,NA,NA,"No","1.97",46,FALSE,21,59.9344683952,NA,"American English","VSH_Exp2","2016_Mar_23_1803",NA
"Recordings/sufi.wav","no","s","f","u","no","i","sufi","Test","alveolar","NewWordTestStimuli",NA,NA,NA,NA,0,21,21,24,NA,NA,NA,NA,"Yes","1.386",46,FALSE,21,59.9344683952,NA,"American English","VSH_Exp2","2016_Mar_23_1803",NA
"Recordings/disa.wav","yes","d","s","i","yes","a","disa","Controls","alveolar","NoPatternControls",NA,NA,NA,NA,0,22,22,53,NA,NA,NA,NA,"No","1.253",46,FALSE,21,59.9344683952,NA,"American English","VSH_Exp2","2016_Mar_23_1803",NA
"Recordings/tipi.wav","no","t","p","i","yes","i","tipi","Test","alveolar","NewConsTestStimuli",NA,NA,NA,NA,0,23,23,12,NA,NA,NA,NA,"No","1.153",46,FALSE,21,59.9344683952,NA,"American English","VSH_Exp2","2016_Mar_23_1803",NA
"Recordings/tupa.wav","no","t","p","u","yes","a","tupa","Test","alveolar","NewConsTestStimuli",NA,NA,NA,NA,0,24,24,16,NA,NA,NA,NA,"No","1.188",46,FALSE,21,59.9344683952,NA,"American English","VSH_Exp2","2016_Mar_23_1803",NA
"Recordings/savi.wav","no","s","v","a","no","i","savi","Controls","alveolar","StopControls",NA,NA,NA,NA,0,25,25,35,NA,NA,NA,NA,"No","0.77",46,FALSE,21,59.9344683952,NA,"American English","VSH_Exp2","2016_Mar_23_1803",NA
"Recordings/zuda.wav","yes","z","d","u","no","a","zuda","Controls","alveolar","VoicingControls",NA,NA,NA,NA,0,26,26,42,NA,NA,NA,NA,"No","0.785",46,FALSE,21,59.9344683952,NA,"American English","VSH_Exp2","2016_Mar_23_1803",NA
"Recordings/fava.wav","no","f","v","a","no","a","fava","Controls","bilabial","StopControls",NA,NA,NA,NA,0,27,27,38,NA,NA,NA,NA,"Yes","1.304",46,FALSE,21,59.9344683952,NA,"American English","VSH_Exp2","2016_Mar_23_1803",NA
"Recordings/vava.wav","yes","v","v","a","no","a","vava","Test","bilabial","NewWordTestStimuli",NA,NA,NA,NA,0,28,28,28,NA,NA,NA,NA,"Yes","0.787",46,FALSE,21,59.9344683952,NA,"American English","VSH_Exp2","2016_Mar_23_1803",NA
"Recordings/pupa.wav","no","p","p","u","yes","a","pupa","Test","bilabial","OldTestStimuli",NA,NA,NA,NA,0,29,29,0,NA,NA,NA,NA,"Yes","0.652",46,FALSE,21,59.9344683952,NA,"American English","VSH_Exp2","2016_Mar_23_1803",NA
"Recordings/duda.wav","yes","d","d","u","yes","a","duda","Test","alveolar","NewWordTestStimuli",NA,NA,NA,NA,0,30,30,29,NA,NA,NA,NA,"Yes","0.887",46,FALSE,21,59.9344683952,NA,"American English","VSH_Exp2","2016_Mar_23_1803",NA
"Recordings/fubu.wav","no","f","b","u","no","u","fubu","Controls","bilabial","NoPatternControls",NA,NA,NA,NA,0,31,31,58,NA,NA,NA,NA,"No","1.604",46,FALSE,21,59.9344683952,NA,"American English","VSH_Exp2","2016_Mar_23_1803",NA
"Recordings/zabu.wav","yes","z","b","a","no","u","zabu","Controls","alveolar","VoicingControls",NA,NA,NA,NA,0,32,32,47,NA,NA,NA,NA,"Yes","1.07",46,FALSE,21,59.9344683952,NA,"American English","VSH_Exp2","2016_Mar_23_1803",NA
"Recordings/puza.wav","no","p","z","u","yes","a","puza","Controls","bilabial","NoPatternControls",NA,NA,NA,NA,0,33,33,51,NA,NA,NA,NA,"No","1.237",46,FALSE,21,59.9344683952,NA,"American English","VSH_Exp2","2016_Mar_23_1803",NA
"Recordings/tafi.wav","no","t","f","a","yes","i","tafi","Controls","alveolar","VoicingControls",NA,NA,NA,NA,0,34,34,44,NA,NA,NA,NA,"Yes","1.354",46,FALSE,21,59.9344683952,NA,"American English","VSH_Exp2","2016_Mar_23_1803",NA
"Recordings/sidi.wav","no","s","d","i","no","i","sidi","Controls","alveolar","NoPatternControls",NA,NA,NA,NA,0,35,35,55,NA,NA,NA,NA,"Yes","1.087",46,FALSE,21,59.9344683952,NA,"American English","VSH_Exp2","2016_Mar_23_1803",NA
"Recordings/pati.wav","no","p","t","a","yes","i","pati","Test","bilabial","NewConsTestStimuli",NA,NA,NA,NA,0,36,36,19,NA,NA,NA,NA,"Yes","1.436",46,FALSE,21,59.9344683952,NA,"American English","VSH_Exp2","2016_Mar_23_1803",NA
"Recordings/zavi.wav","yes","z","v","a","no","i","zavi","Test","alveolar","OldTestStimuli",NA,NA,NA,NA,0,37,37,1,NA,NA,NA,NA,"Yes","0.886",46,FALSE,21,59.9344683952,NA,"American English","VSH_Exp2","2016_Mar_23_1803",NA
"Recordings/tatu.wav","no","t","t","a","yes","u","tatu","Test","alveolar","NewWordTestStimuli",NA,NA,NA,NA,0,38,38,20,NA,NA,NA,NA,"Yes","1.003",46,FALSE,21,59.9344683952,NA,"American English","VSH_Exp2","2016_Mar_23_1803",NA
"Recordings/zapi.wav","yes","z","p","a","no","i","zapi","Controls","alveolar","NoPatternControls",NA,NA,NA,NA,0,39,39,57,NA,NA,NA,NA,"Yes","1.138",46,FALSE,21,59.9344683952,NA,"American English","VSH_Exp2","2016_Mar_23_1803",NA
"Recordings/safa.wav","no","s","f","a","no","a","safa","Test","alveolar","NewWordTestStimuli",NA,NA,NA,NA,0,40,40,21,NA,NA,NA,NA,"Yes","1.454",46,FALSE,21,59.9344683952,NA,"American English","VSH_Exp2","2016_Mar_23_1803",NA
"Recordings/fapu.wav","no","f","p","a","no","u","fapu","Controls","bilabial","VoicingControls",NA,NA,NA,NA,0,41,41,48,NA,NA,NA,NA,"Yes","1.687",46,FALSE,21,59.9344683952,NA,"American English","VSH_Exp2","2016_Mar_23_1803",NA
"Recordings/tata.wav","no","t","t","a","yes","a","tata","Test","alveolar","OldTestStimuli",NA,NA,NA,NA,0,42,42,4,NA,NA,NA,NA,"Yes","1.186",46,FALSE,21,59.9344683952,NA,"American English","VSH_Exp2","2016_Mar_23_1803",NA
"Recordings/tupi.wav","no","t","p","u","yes","i","tupi","Test","alveolar","NewConsTestStimuli",NA,NA,NA,NA,0,43,43,14,NA,NA,NA,NA,"No","1.789",46,FALSE,21,59.9344683952,NA,"American English","VSH_Exp2","2016_Mar_23_1803",NA
"Recordings/tuta.wav","no","t","t","u","yes","a","tuta","Test","alveolar","NewWordTestStimuli",NA,NA,NA,NA,0,44,44,27,NA,NA,NA,NA,"No","1.037",46,FALSE,21,59.9344683952,NA,"American English","VSH_Exp2","2016_Mar_23_1803",NA
"Recordings/vibi.wav","yes","v","b","i","no","i","vibi","Controls","bilabial","VoicingControls",NA,NA,NA,NA,0,45,45,40,NA,NA,NA,NA,"Yes","1.021",46,FALSE,21,59.9344683952,NA,"American English","VSH_Exp2","2016_Mar_23_1803",NA
"Recordings/viza.wav","yes","v","z","i","no","a","viza","Test","bilabial","NewWordTestStimuli",NA,NA,NA,NA,0,46,46,26,NA,NA,NA,NA,"No","1.954",46,FALSE,21,59.9344683952,NA,"American English","VSH_Exp2","2016_Mar_23_1803",NA
"Recordings/zatu.wav","yes","z","t","a","no","u","zatu","Controls","alveolar","NoPatternControls",NA,NA,NA,NA,0,47,47,52,NA,NA,NA,NA,"No","1.553",46,FALSE,21,59.9344683952,NA,"American English","VSH_Exp2","2016_Mar_23_1803",NA
"Recordings/puta.wav","no","p","t","u","yes","a","puta","Test","bilabial","NewConsTestStimuli",NA,NA,NA,NA,0,48,48,15,NA,NA,NA,NA,"No","3.222",46,FALSE,21,59.9344683952,NA,"American English","VSH_Exp2","2016_Mar_23_1803",NA
"Recordings/tipa.wav","no","t","p","i","yes","a","tipa","Test","alveolar","NewConsTestStimuli",NA,NA,NA,NA,0,49,49,17,NA,NA,NA,NA,"No","1.254",46,FALSE,21,59.9344683952,NA,"American English","VSH_Exp2","2016_Mar_23_1803",NA
"Recordings/vuvi.wav","yes","v","v","u","no","i","vuvi","Test","bilabial","NewWordTestStimuli",NA,NA,NA,NA,0,50,50,22,NA,NA,NA,NA,"Yes","1.321",46,FALSE,21,59.9344683952,NA,"American English","VSH_Exp2","2016_Mar_23_1803",NA
"Recordings/padu.wav","no","p","d","a","yes","u","padu","Controls","bilabial","StopControls",NA,NA,NA,NA,0,51,51,31,NA,NA,NA,NA,"Yes","1.169",46,FALSE,21,59.9344683952,NA,"American English","VSH_Exp2","2016_Mar_23_1803",NA
"Recordings/vufa.wav","yes","v","f","u","no","a","vufa","Controls","bilabial","StopControls",NA,NA,NA,NA,0,52,52,36,NA,NA,NA,NA,"Yes","1.237",46,FALSE,21,59.9344683952,NA,"American English","VSH_Exp2","2016_Mar_23_1803",NA
"Recordings/tuva.wav","no","t","v","u","yes","a","tuva","Controls","alveolar","NoPatternControls",NA,NA,NA,NA,0,53,53,54,NA,NA,NA,NA,"Yes","1.119",46,FALSE,21,59.9344683952,NA,"American English","VSH_Exp2","2016_Mar_23_1803",NA
"Recordings/vifi.wav","yes","v","f","i","no","i","vifi","Controls","bilabial","StopControls",NA,NA,NA,NA,0,54,54,30,NA,NA,NA,NA,"Yes","0.837",46,FALSE,21,59.9344683952,NA,"American English","VSH_Exp2","2016_Mar_23_1803",NA
"Recordings/sapu.wav","no","s","p","a","no","u","sapu","Controls","alveolar","VoicingControls",NA,NA,NA,NA,0,55,55,45,NA,NA,NA,NA,"Yes","1.037",46,FALSE,21,59.9344683952,NA,"American English","VSH_Exp2","2016_Mar_23_1803",NA
"Recordings/putu.wav","no","p","t","u","yes","u","putu","Test","bilabial","NewConsTestStimuli",NA,NA,NA,NA,0,56,56,11,NA,NA,NA,NA,"No","1.119",46,FALSE,21,59.9344683952,NA,"American English","VSH_Exp2","2016_Mar_23_1803",NA
"Recordings/fufa.wav","no","f","f","u","no","a","fufa","Test","bilabial","OldTestStimuli",NA,NA,NA,NA,0,57,57,2,NA,NA,NA,NA,"Yes","1.337",46,FALSE,21,59.9344683952,NA,"American English","VSH_Exp2","2016_Mar_23_1803",NA
"Recordings/dupi.wav","yes","d","p","u","yes","i","dupi","Controls","alveolar","StopControls",NA,NA,NA,NA,0,58,58,39,NA,NA,NA,NA,"Yes","0.92",46,FALSE,21,59.9344683952,NA,"American English","VSH_Exp2","2016_Mar_23_1803",NA
"Recordings/buba.wav","yes","b","b","u","yes","a","buba","Test","bilabial","OldTestStimuli",NA,NA,NA,NA,0,59,59,6,NA,NA,NA,NA,"Yes","1.171",46,FALSE,21,59.9344683952,NA,"American English","VSH_Exp2","2016_Mar_23_1803",NA
