"SOUND","VOICING","SEGMENT","SEGMENT3","SEGMENT2","STOP","SEGMENT4","STIMULUS","GENERAL_TYPE","PLACE","TYPE","trials.thisRepN","trials.thisTrialN","trials.thisN","trials.thisIndex","trials_2.thisRepN","trials_2.thisTrialN","trials_2.thisN","trials_2.thisIndex","SpaceBar.keys","SpaceBar.rt","key_resp_2.keys","key_resp_2.rt","rating.response","rating.rt","participant","Gender","Age","frameRate","OtherLanguages","NativeLanguage","expName","date","X34"
NA,NA,NA,NA,NA,NA,NA,NA,NA,NA,NA,NA,NA,NA,NA,NA,NA,NA,NA,"space",3.22166895866,NA,NA,NA,NA,47,FALSE,19,60.0182588812,NA,"American English","VSH_Exp2","2016_Mar_23_1907",NA
"Recordings/vava.wav","yes","v","v","a","no","a","vava","Training","bilabial","TrainingItems",0,0,0,56,NA,NA,NA,NA,NA,NA,NA,NA,NA,NA,47,FALSE,19,60.0182588812,NA,"American English","VSH_Exp2","2016_Mar_23_1907",NA
"Recordings/sisi.wav","no","s","s","i","no","i","sisi","Training","alveolar","TrainingItems",0,1,1,51,NA,NA,NA,NA,NA,NA,NA,NA,NA,NA,47,FALSE,19,60.0182588812,NA,"American English","VSH_Exp2","2016_Mar_23_1907",NA
"Recordings/fisi.wav","no","f","s","i","no","i","fisi","Training","bilabial","TrainingItems",0,2,2,6,NA,NA,NA,NA,NA,NA,NA,NA,NA,NA,47,FALSE,19,60.0182588812,NA,"American English","VSH_Exp2","2016_Mar_23_1907",NA
"Recordings/tuta.wav","no","t","t","u","yes","a","tuta","Training","alveolar","TrainingItems",0,3,3,37,NA,NA,NA,NA,NA,NA,NA,NA,NA,NA,47,FALSE,19,60.0182588812,NA,"American English","VSH_Exp2","2016_Mar_23_1907",NA
"Recordings/fusa.wav","no","f","s","u","no","a","fusa","Training","bilabial","TrainingItems",0,4,4,30,NA,NA,NA,NA,NA,NA,NA,NA,NA,NA,47,FALSE,19,60.0182588812,NA,"American English","VSH_Exp2","2016_Mar_23_1907",NA
"Recordings/zuva.wav","yes","z","v","u","no","a","zuva","Training","alveolar","TrainingItems",0,5,5,17,NA,NA,NA,NA,NA,NA,NA,NA,NA,NA,47,FALSE,19,60.0182588812,NA,"American English","VSH_Exp2","2016_Mar_23_1907",NA
"Recordings/vuza.wav","yes","v","z","u","no","a","vuza","Training","bilabial","TrainingItems",0,6,6,90,NA,NA,NA,NA,NA,NA,NA,NA,NA,NA,47,FALSE,19,60.0182588812,NA,"American English","VSH_Exp2","2016_Mar_23_1907",NA
"Recordings/susu.wav","no","s","s","u","no","u","susu","Training","alveolar","TrainingItems",0,7,7,79,NA,NA,NA,NA,NA,NA,NA,NA,NA,NA,47,FALSE,19,60.0182588812,NA,"American English","VSH_Exp2","2016_Mar_23_1907",NA
"Recordings/tupa.wav","no","t","p","u","yes","a","tupa","Training","alveolar","TrainingItems",0,8,8,28,NA,NA,NA,NA,NA,NA,NA,NA,NA,NA,47,FALSE,19,60.0182588812,NA,"American English","VSH_Exp2","2016_Mar_23_1907",NA
"Recordings/vazi.wav","yes","v","z","a","no","i","vazi","Training","bilabial","TrainingItems",0,9,9,52,NA,NA,NA,NA,NA,NA,NA,NA,NA,NA,47,FALSE,19,60.0182588812,NA,"American English","VSH_Exp2","2016_Mar_23_1907",NA
"Recordings/ziza.wav","yes","z","z","i","no","a","ziza","Training","alveolar","TrainingItems",0,10,10,25,NA,NA,NA,NA,NA,NA,NA,NA,NA,NA,47,FALSE,19,60.0182588812,NA,"American English","VSH_Exp2","2016_Mar_23_1907",NA
"Recordings/buba.wav","yes","b","b","u","yes","a","buba","Training","bilabial","TrainingItems",0,11,11,84,NA,NA,NA,NA,NA,NA,NA,NA,NA,NA,47,FALSE,19,60.0182588812,NA,"American English","VSH_Exp2","2016_Mar_23_1907",NA
"Recordings/vavu.wav","yes","v","v","a","no","u","vavu","Training","bilabial","TrainingItems",0,12,12,12,NA,NA,NA,NA,NA,NA,NA,NA,NA,NA,47,FALSE,19,60.0182588812,NA,"American English","VSH_Exp2","2016_Mar_23_1907",NA
"Recordings/pupu.wav","no","p","p","u","yes","u","pupu","Training","bilabial","TrainingItems",0,13,13,62,NA,NA,NA,NA,NA,NA,NA,NA,NA,NA,47,FALSE,19,60.0182588812,NA,"American English","VSH_Exp2","2016_Mar_23_1907",NA
"Recordings/pipa.wav","no","p","p","i","yes","a","pipa","Training","bilabial","TrainingItems",0,14,14,72,NA,NA,NA,NA,NA,NA,NA,NA,NA,NA,47,FALSE,19,60.0182588812,NA,"American English","VSH_Exp2","2016_Mar_23_1907",NA
"Recordings/papi.wav","no","p","p","a","yes","i","papi","Training","bilabial","TrainingItems",0,15,15,36,NA,NA,NA,NA,NA,NA,NA,NA,NA,NA,47,FALSE,19,60.0182588812,NA,"American English","VSH_Exp2","2016_Mar_23_1907",NA
"Recordings/patu.wav","no","p","t","a","yes","u","patu","Training","bilabial","TrainingItems",0,16,16,15,NA,NA,NA,NA,NA,NA,NA,NA,NA,NA,47,FALSE,19,60.0182588812,NA,"American English","VSH_Exp2","2016_Mar_23_1907",NA
"Recordings/zaza.wav","yes","z","z","a","no","a","zaza","Training","alveolar","TrainingItems",0,17,17,80,NA,NA,NA,NA,NA,NA,NA,NA,NA,NA,47,FALSE,19,60.0182588812,NA,"American English","VSH_Exp2","2016_Mar_23_1907",NA
"Recordings/tita.wav","no","t","t","i","yes","a","tita","Training","alveolar","TrainingItems",0,18,18,41,NA,NA,NA,NA,NA,NA,NA,NA,NA,NA,47,FALSE,19,60.0182588812,NA,"American English","VSH_Exp2","2016_Mar_23_1907",NA
"Recordings/zivi.wav","yes","z","v","i","no","i","zivi","Training","alveolar","TrainingItems",0,19,19,99,NA,NA,NA,NA,NA,NA,NA,NA,NA,NA,47,FALSE,19,60.0182588812,NA,"American English","VSH_Exp2","2016_Mar_23_1907",NA
"Recordings/baba.wav","yes","b","b","a","yes","a","baba","Training","bilabial","TrainingItems",0,20,20,94,NA,NA,NA,NA,NA,NA,NA,NA,NA,NA,47,FALSE,19,60.0182588812,NA,"American English","VSH_Exp2","2016_Mar_23_1907",NA
"Recordings/tipi.wav","no","t","p","i","yes","i","tipi","Training","alveolar","TrainingItems",0,21,21,69,NA,NA,NA,NA,NA,NA,NA,NA,NA,NA,47,FALSE,19,60.0182588812,NA,"American English","VSH_Exp2","2016_Mar_23_1907",NA
"Recordings/zuvi.wav","yes","z","v","u","no","i","zuvi","Training","alveolar","TrainingItems",0,22,22,1,NA,NA,NA,NA,NA,NA,NA,NA,NA,NA,47,FALSE,19,60.0182588812,NA,"American English","VSH_Exp2","2016_Mar_23_1907",NA
"Recordings/vuzu.wav","yes","v","z","u","no","u","vuzu","Training","bilabial","TrainingItems",0,23,23,85,NA,NA,NA,NA,NA,NA,NA,NA,NA,NA,47,FALSE,19,60.0182588812,NA,"American English","VSH_Exp2","2016_Mar_23_1907",NA
"Recordings/sufu.wav","no","s","f","u","no","u","sufu","Training","alveolar","TrainingItems",0,24,24,65,NA,NA,NA,NA,NA,NA,NA,NA,NA,NA,47,FALSE,19,60.0182588812,NA,"American English","VSH_Exp2","2016_Mar_23_1907",NA
"Recordings/fifa.wav","no","f","f","i","no","a","fifa","Training","bilabial","TrainingItems",0,25,25,40,NA,NA,NA,NA,NA,NA,NA,NA,NA,NA,47,FALSE,19,60.0182588812,NA,"American English","VSH_Exp2","2016_Mar_23_1907",NA
"Recordings/dida.wav","yes","d","d","i","yes","a","dida","Training","alveolar","TrainingItems",0,26,26,16,NA,NA,NA,NA,NA,NA,NA,NA,NA,NA,47,FALSE,19,60.0182588812,NA,"American English","VSH_Exp2","2016_Mar_23_1907",NA
"Recordings/dudu.wav","yes","d","d","u","yes","u","dudu","Training","alveolar","TrainingItems",0,27,27,29,NA,NA,NA,NA,NA,NA,NA,NA,NA,NA,47,FALSE,19,60.0182588812,NA,"American English","VSH_Exp2","2016_Mar_23_1907",NA
"Recordings/safi.wav","no","s","f","a","no","i","safi","Training","alveolar","TrainingItems",0,28,28,2,NA,NA,NA,NA,NA,NA,NA,NA,NA,NA,47,FALSE,19,60.0182588812,NA,"American English","VSH_Exp2","2016_Mar_23_1907",NA
"Recordings/viva.wav","yes","v","v","i","no","a","viva","Training","bilabial","TrainingItems",0,29,29,18,NA,NA,NA,NA,NA,NA,NA,NA,NA,NA,47,FALSE,19,60.0182588812,NA,"American English","VSH_Exp2","2016_Mar_23_1907",NA
"Recordings/tapa.wav","no","t","p","a","yes","a","tapa","Training","alveolar","TrainingItems",0,30,30,83,NA,NA,NA,NA,NA,NA,NA,NA,NA,NA,47,FALSE,19,60.0182588812,NA,"American English","VSH_Exp2","2016_Mar_23_1907",NA
"Recordings/vivi.wav","yes","v","v","i","no","i","vivi","Training","bilabial","TrainingItems",0,31,31,32,NA,NA,NA,NA,NA,NA,NA,NA,NA,NA,47,FALSE,19,60.0182588812,NA,"American English","VSH_Exp2","2016_Mar_23_1907",NA
"Recordings/vaza.wav","yes","v","z","a","no","a","vaza","Training","bilabial","TrainingItems",0,32,32,39,NA,NA,NA,NA,NA,NA,NA,NA,NA,NA,47,FALSE,19,60.0182588812,NA,"American English","VSH_Exp2","2016_Mar_23_1907",NA
"Recordings/tati.wav","no","t","t","a","yes","i","tati","Training","alveolar","TrainingItems",0,33,33,70,NA,NA,NA,NA,NA,NA,NA,NA,NA,NA,47,FALSE,19,60.0182588812,NA,"American English","VSH_Exp2","2016_Mar_23_1907",NA
"Recordings/fusi.wav","no","f","s","u","no","i","fusi","Training","bilabial","TrainingItems",0,34,34,38,NA,NA,NA,NA,NA,NA,NA,NA,NA,NA,47,FALSE,19,60.0182588812,NA,"American English","VSH_Exp2","2016_Mar_23_1907",NA
"Recordings/ziva.wav","yes","z","v","i","no","a","ziva","Training","alveolar","TrainingItems",0,35,35,68,NA,NA,NA,NA,NA,NA,NA,NA,NA,NA,47,FALSE,19,60.0182588812,NA,"American English","VSH_Exp2","2016_Mar_23_1907",NA
"Recordings/vazu.wav","yes","v","z","a","no","u","vazu","Training","bilabial","TrainingItems",0,36,36,24,NA,NA,NA,NA,NA,NA,NA,NA,NA,NA,47,FALSE,19,60.0182588812,NA,"American English","VSH_Exp2","2016_Mar_23_1907",NA
"Recordings/bubi.wav","yes","b","b","u","yes","i","bubi","Training","bilabial","TrainingItems",0,37,37,57,NA,NA,NA,NA,NA,NA,NA,NA,NA,NA,47,FALSE,19,60.0182588812,NA,"American English","VSH_Exp2","2016_Mar_23_1907",NA
"Recordings/dada.wav","yes","d","d","a","yes","a","dada","Training","alveolar","TrainingItems",0,38,38,63,NA,NA,NA,NA,NA,NA,NA,NA,NA,NA,47,FALSE,19,60.0182588812,NA,"American English","VSH_Exp2","2016_Mar_23_1907",NA
"Recordings/zuvu.wav","yes","z","v","u","no","u","zuvu","Training","alveolar","TrainingItems",0,39,39,4,NA,NA,NA,NA,NA,NA,NA,NA,NA,NA,47,FALSE,19,60.0182588812,NA,"American English","VSH_Exp2","2016_Mar_23_1907",NA
"Recordings/vavi.wav","yes","v","v","a","no","i","vavi","Training","bilabial","TrainingItems",0,40,40,77,NA,NA,NA,NA,NA,NA,NA,NA,NA,NA,47,FALSE,19,60.0182588812,NA,"American English","VSH_Exp2","2016_Mar_23_1907",NA
"Recordings/bubu.wav","yes","b","b","u","yes","u","bubu","Training","bilabial","TrainingItems",0,41,41,45,NA,NA,NA,NA,NA,NA,NA,NA,NA,NA,47,FALSE,19,60.0182588812,NA,"American English","VSH_Exp2","2016_Mar_23_1907",NA
"Recordings/sisu.wav","no","s","s","i","no","u","sisu","Training","alveolar","TrainingItems",0,42,42,9,NA,NA,NA,NA,NA,NA,NA,NA,NA,NA,47,FALSE,19,60.0182588812,NA,"American English","VSH_Exp2","2016_Mar_23_1907",NA
"Recordings/tata.wav","no","t","t","a","yes","a","tata","Training","alveolar","TrainingItems",0,43,43,87,NA,NA,NA,NA,NA,NA,NA,NA,NA,NA,47,FALSE,19,60.0182588812,NA,"American English","VSH_Exp2","2016_Mar_23_1907",NA
"Recordings/safa.wav","no","s","f","a","no","a","safa","Training","alveolar","TrainingItems",0,44,44,35,NA,NA,NA,NA,NA,NA,NA,NA,NA,NA,47,FALSE,19,60.0182588812,NA,"American English","VSH_Exp2","2016_Mar_23_1907",NA
"Recordings/tutu.wav","no","t","t","u","yes","u","tutu","Training","alveolar","TrainingItems",0,45,45,55,NA,NA,NA,NA,NA,NA,NA,NA,NA,NA,47,FALSE,19,60.0182588812,NA,"American English","VSH_Exp2","2016_Mar_23_1907",NA
"Recordings/dadi.wav","yes","d","d","a","yes","i","dadi","Training","alveolar","TrainingItems",0,46,46,0,NA,NA,NA,NA,NA,NA,NA,NA,NA,NA,47,FALSE,19,60.0182588812,NA,"American English","VSH_Exp2","2016_Mar_23_1907",NA
"Recordings/fisu.wav","no","f","s","i","no","u","fisu","Training","bilabial","TrainingItems",0,47,47,27,NA,NA,NA,NA,NA,NA,NA,NA,NA,NA,47,FALSE,19,60.0182588812,NA,"American English","VSH_Exp2","2016_Mar_23_1907",NA
"Recordings/pitu.wav","no","p","t","i","yes","u","pitu","Training","bilabial","TrainingItems",0,48,48,54,NA,NA,NA,NA,NA,NA,NA,NA,NA,NA,47,FALSE,19,60.0182588812,NA,"American English","VSH_Exp2","2016_Mar_23_1907",NA
"Recordings/puta.wav","no","p","t","u","yes","a","puta","Training","bilabial","TrainingItems",0,49,49,7,NA,NA,NA,NA,NA,NA,NA,NA,NA,NA,47,FALSE,19,60.0182588812,NA,"American English","VSH_Exp2","2016_Mar_23_1907",NA
"Recordings/sufa.wav","no","s","f","u","no","a","sufa","Training","alveolar","TrainingItems",0,50,50,3,NA,NA,NA,NA,NA,NA,NA,NA,NA,NA,47,FALSE,19,60.0182588812,NA,"American English","VSH_Exp2","2016_Mar_23_1907",NA
"Recordings/fafu.wav","no","f","f","a","no","u","fafu","Training","bilabial","TrainingItems",0,51,51,42,NA,NA,NA,NA,NA,NA,NA,NA,NA,NA,47,FALSE,19,60.0182588812,NA,"American English","VSH_Exp2","2016_Mar_23_1907",NA
"Recordings/tatu.wav","no","t","t","a","yes","u","tatu","Training","alveolar","TrainingItems",0,52,52,49,NA,NA,NA,NA,NA,NA,NA,NA,NA,NA,47,FALSE,19,60.0182588812,NA,"American English","VSH_Exp2","2016_Mar_23_1907",NA
"Recordings/dadu.wav","yes","d","d","a","yes","u","dadu","Training","alveolar","TrainingItems",0,53,53,88,NA,NA,NA,NA,NA,NA,NA,NA,NA,NA,47,FALSE,19,60.0182588812,NA,"American English","VSH_Exp2","2016_Mar_23_1907",NA
"Recordings/tupi.wav","no","t","p","u","yes","i","tupi","Training","alveolar","TrainingItems",0,54,54,13,NA,NA,NA,NA,NA,NA,NA,NA,NA,NA,47,FALSE,19,60.0182588812,NA,"American English","VSH_Exp2","2016_Mar_23_1907",NA
"Recordings/vivu.wav","yes","v","v","i","no","u","vivu","Training","bilabial","TrainingItems",0,55,55,64,NA,NA,NA,NA,NA,NA,NA,NA,NA,NA,47,FALSE,19,60.0182588812,NA,"American English","VSH_Exp2","2016_Mar_23_1907",NA
"Recordings/safu.wav","no","s","f","a","no","u","safu","Training","alveolar","TrainingItems",0,56,56,23,NA,NA,NA,NA,NA,NA,NA,NA,NA,NA,47,FALSE,19,60.0182588812,NA,"American English","VSH_Exp2","2016_Mar_23_1907",NA
"Recordings/susa.wav","no","s","s","u","no","a","susa","Training","alveolar","TrainingItems",0,57,57,61,NA,NA,NA,NA,NA,NA,NA,NA,NA,NA,47,FALSE,19,60.0182588812,NA,"American English","VSH_Exp2","2016_Mar_23_1907",NA
"Recordings/pita.wav","no","p","t","i","yes","a","pita","Training","bilabial","TrainingItems",0,58,58,66,NA,NA,NA,NA,NA,NA,NA,NA,NA,NA,47,FALSE,19,60.0182588812,NA,"American English","VSH_Exp2","2016_Mar_23_1907",NA
"Recordings/fufa.wav","no","f","f","u","no","a","fufa","Training","bilabial","TrainingItems",0,59,59,43,NA,NA,NA,NA,NA,NA,NA,NA,NA,NA,47,FALSE,19,60.0182588812,NA,"American English","VSH_Exp2","2016_Mar_23_1907",NA
"Recordings/fifu.wav","no","f","f","i","no","u","fifu","Training","bilabial","TrainingItems",0,60,60,92,NA,NA,NA,NA,NA,NA,NA,NA,NA,NA,47,FALSE,19,60.0182588812,NA,"American English","VSH_Exp2","2016_Mar_23_1907",NA
"Recordings/zavi.wav","yes","z","v","a","no","i","zavi","Training","alveolar","TrainingItems",0,61,61,76,NA,NA,NA,NA,NA,NA,NA,NA,NA,NA,47,FALSE,19,60.0182588812,NA,"American English","VSH_Exp2","2016_Mar_23_1907",NA
"Recordings/fasa.wav","no","f","s","a","no","a","fasa","Training","bilabial","TrainingItems",0,62,62,5,NA,NA,NA,NA,NA,NA,NA,NA,NA,NA,47,FALSE,19,60.0182588812,NA,"American English","VSH_Exp2","2016_Mar_23_1907",NA
"Recordings/zuzi.wav","yes","z","z","u","no","i","zuzi","Training","alveolar","TrainingItems",0,63,63,46,NA,NA,NA,NA,NA,NA,NA,NA,NA,NA,47,FALSE,19,60.0182588812,NA,"American English","VSH_Exp2","2016_Mar_23_1907",NA
"Recordings/fasi.wav","no","f","s","a","no","i","fasi","Training","bilabial","TrainingItems",0,64,64,44,NA,NA,NA,NA,NA,NA,NA,NA,NA,NA,47,FALSE,19,60.0182588812,NA,"American English","VSH_Exp2","2016_Mar_23_1907",NA
"Recordings/pati.wav","no","p","t","a","yes","i","pati","Training","bilabial","TrainingItems",0,65,65,22,NA,NA,NA,NA,NA,NA,NA,NA,NA,NA,47,FALSE,19,60.0182588812,NA,"American English","VSH_Exp2","2016_Mar_23_1907",NA
"Recordings/didi.wav","yes","d","d","i","yes","i","didi","Training","alveolar","TrainingItems",0,66,66,67,NA,NA,NA,NA,NA,NA,NA,NA,NA,NA,47,FALSE,19,60.0182588812,NA,"American English","VSH_Exp2","2016_Mar_23_1907",NA
"Recordings/zazi.wav","yes","z","z","a","no","i","zazi","Training","alveolar","TrainingItems",0,67,67,96,NA,NA,NA,NA,NA,NA,NA,NA,NA,NA,47,FALSE,19,60.0182588812,NA,"American English","VSH_Exp2","2016_Mar_23_1907",NA
"Recordings/sifi.wav","no","s","f","i","no","i","sifi","Training","alveolar","TrainingItems",0,68,68,71,NA,NA,NA,NA,NA,NA,NA,NA,NA,NA,47,FALSE,19,60.0182588812,NA,"American English","VSH_Exp2","2016_Mar_23_1907",NA
"Recordings/tupu.wav","no","t","p","u","yes","u","tupu","Training","alveolar","TrainingItems",0,69,69,21,NA,NA,NA,NA,NA,NA,NA,NA,NA,NA,47,FALSE,19,60.0182588812,NA,"American English","VSH_Exp2","2016_Mar_23_1907",NA
"Recordings/titu.wav","no","t","t","i","yes","u","titu","Training","alveolar","TrainingItems",0,70,70,91,NA,NA,NA,NA,NA,NA,NA,NA,NA,NA,47,FALSE,19,60.0182588812,NA,"American English","VSH_Exp2","2016_Mar_23_1907",NA
"Recordings/fasu.wav","no","f","s","a","no","u","fasu","Training","bilabial","TrainingItems",0,71,71,31,NA,NA,NA,NA,NA,NA,NA,NA,NA,NA,47,FALSE,19,60.0182588812,NA,"American English","VSH_Exp2","2016_Mar_23_1907",NA
"Recordings/fufu.wav","no","f","f","u","no","u","fufu","Training","bilabial","TrainingItems",0,72,72,47,NA,NA,NA,NA,NA,NA,NA,NA,NA,NA,47,FALSE,19,60.0182588812,NA,"American English","VSH_Exp2","2016_Mar_23_1907",NA
"Recordings/vizu.wav","yes","v","z","i","no","u","vizu","Training","bilabial","TrainingItems",0,73,73,93,NA,NA,NA,NA,NA,NA,NA,NA,NA,NA,47,FALSE,19,60.0182588812,NA,"American English","VSH_Exp2","2016_Mar_23_1907",NA
"Recordings/sufi.wav","no","s","f","u","no","i","sufi","Training","alveolar","TrainingItems",0,74,74,58,NA,NA,NA,NA,NA,NA,NA,NA,NA,NA,47,FALSE,19,60.0182588812,NA,"American English","VSH_Exp2","2016_Mar_23_1907",NA
"Recordings/zivu.wav","yes","z","v","i","no","u","zivu","Training","alveolar","TrainingItems",0,75,75,48,NA,NA,NA,NA,NA,NA,NA,NA,NA,NA,47,FALSE,19,60.0182588812,NA,"American English","VSH_Exp2","2016_Mar_23_1907",NA
"Recordings/fufi.wav","no","f","f","u","no","i","fufi","Training","bilabial","TrainingItems",0,76,76,20,NA,NA,NA,NA,NA,NA,NA,NA,NA,NA,47,FALSE,19,60.0182588812,NA,"American English","VSH_Exp2","2016_Mar_23_1907",NA
"Recordings/pupa.wav","no","p","p","u","yes","a","pupa","Training","bilabial","TrainingItems",0,77,77,73,NA,NA,NA,NA,NA,NA,NA,NA,NA,NA,47,FALSE,19,60.0182588812,NA,"American English","VSH_Exp2","2016_Mar_23_1907",NA
"Recordings/zuzu.wav","yes","z","z","u","no","u","zuzu","Training","alveolar","TrainingItems",0,78,78,8,NA,NA,NA,NA,NA,NA,NA,NA,NA,NA,47,FALSE,19,60.0182588812,NA,"American English","VSH_Exp2","2016_Mar_23_1907",NA
"Recordings/zava.wav","yes","z","v","a","no","a","zava","Training","alveolar","TrainingItems",0,79,79,26,NA,NA,NA,NA,NA,NA,NA,NA,NA,NA,47,FALSE,19,60.0182588812,NA,"American English","VSH_Exp2","2016_Mar_23_1907",NA
"Recordings/bibi.wav","yes","b","b","i","yes","i","bibi","Training","bilabial","TrainingItems",0,80,80,89,NA,NA,NA,NA,NA,NA,NA,NA,NA,NA,47,FALSE,19,60.0182588812,NA,"American English","VSH_Exp2","2016_Mar_23_1907",NA
"Recordings/zizu.wav","yes","z","z","i","no","u","zizu","Training","alveolar","TrainingItems",0,81,81,14,NA,NA,NA,NA,NA,NA,NA,NA,NA,NA,47,FALSE,19,60.0182588812,NA,"American English","VSH_Exp2","2016_Mar_23_1907",NA
"Recordings/didu.wav","yes","d","d","i","yes","u","didu","Training","alveolar","TrainingItems",0,82,82,11,NA,NA,NA,NA,NA,NA,NA,NA,NA,NA,47,FALSE,19,60.0182588812,NA,"American English","VSH_Exp2","2016_Mar_23_1907",NA
"Recordings/fusu.wav","no","f","s","u","no","u","fusu","Training","bilabial","TrainingItems",0,83,83,10,NA,NA,NA,NA,NA,NA,NA,NA,NA,NA,47,FALSE,19,60.0182588812,NA,"American English","VSH_Exp2","2016_Mar_23_1907",NA
"Recordings/zizi.wav","yes","z","z","i","no","i","zizi","Training","alveolar","TrainingItems",0,84,84,60,NA,NA,NA,NA,NA,NA,NA,NA,NA,NA,47,FALSE,19,60.0182588812,NA,"American English","VSH_Exp2","2016_Mar_23_1907",NA
"Recordings/sasa.wav","no","s","s","a","no","a","sasa","Training","alveolar","TrainingItems",0,85,85,59,NA,NA,NA,NA,NA,NA,NA,NA,NA,NA,47,FALSE,19,60.0182588812,NA,"American English","VSH_Exp2","2016_Mar_23_1907",NA
"Recordings/fafi.wav","no","f","f","a","no","i","fafi","Training","bilabial","TrainingItems",0,86,86,53,NA,NA,NA,NA,NA,NA,NA,NA,NA,NA,47,FALSE,19,60.0182588812,NA,"American English","VSH_Exp2","2016_Mar_23_1907",NA
"Recordings/vuzi.wav","yes","v","z","u","no","i","vuzi","Training","bilabial","TrainingItems",0,87,87,82,NA,NA,NA,NA,NA,NA,NA,NA,NA,NA,47,FALSE,19,60.0182588812,NA,"American English","VSH_Exp2","2016_Mar_23_1907",NA
"Recordings/papa.wav","no","p","p","a","yes","a","papa","Training","bilabial","TrainingItems",0,88,88,81,NA,NA,NA,NA,NA,NA,NA,NA,NA,NA,47,FALSE,19,60.0182588812,NA,"American English","VSH_Exp2","2016_Mar_23_1907",NA
"Recordings/pupi.wav","no","p","p","u","yes","i","pupi","Training","bilabial","TrainingItems",0,89,89,86,NA,NA,NA,NA,NA,NA,NA,NA,NA,NA,47,FALSE,19,60.0182588812,NA,"American English","VSH_Exp2","2016_Mar_23_1907",NA
"Recordings/viza.wav","yes","v","z","i","no","a","viza","Training","bilabial","TrainingItems",0,90,90,50,NA,NA,NA,NA,NA,NA,NA,NA,NA,NA,47,FALSE,19,60.0182588812,NA,"American English","VSH_Exp2","2016_Mar_23_1907",NA
"Recordings/dudi.wav","yes","d","d","u","yes","i","dudi","Training","alveolar","TrainingItems",0,91,91,95,NA,NA,NA,NA,NA,NA,NA,NA,NA,NA,47,FALSE,19,60.0182588812,NA,"American English","VSH_Exp2","2016_Mar_23_1907",NA
"Recordings/duda.wav","yes","d","d","u","yes","a","duda","Training","alveolar","TrainingItems",0,92,92,98,NA,NA,NA,NA,NA,NA,NA,NA,NA,NA,47,FALSE,19,60.0182588812,NA,"American English","VSH_Exp2","2016_Mar_23_1907",NA
"Recordings/pata.wav","no","p","t","a","yes","a","pata","Training","bilabial","TrainingItems",0,93,93,97,NA,NA,NA,NA,NA,NA,NA,NA,NA,NA,47,FALSE,19,60.0182588812,NA,"American English","VSH_Exp2","2016_Mar_23_1907",NA
"Recordings/vuvi.wav","yes","v","v","u","no","i","vuvi","Training","bilabial","TrainingItems",0,94,94,33,NA,NA,NA,NA,NA,NA,NA,NA,NA,NA,47,FALSE,19,60.0182588812,NA,"American English","VSH_Exp2","2016_Mar_23_1907",NA
"Recordings/vizi.wav","yes","v","z","i","no","i","vizi","Training","bilabial","TrainingItems",0,95,95,74,NA,NA,NA,NA,NA,NA,NA,NA,NA,NA,47,FALSE,19,60.0182588812,NA,"American English","VSH_Exp2","2016_Mar_23_1907",NA
"Recordings/piti.wav","no","p","t","i","yes","i","piti","Training","bilabial","TrainingItems",0,96,96,19,NA,NA,NA,NA,NA,NA,NA,NA,NA,NA,47,FALSE,19,60.0182588812,NA,"American English","VSH_Exp2","2016_Mar_23_1907",NA
"Recordings/fifi.wav","no","f","f","i","no","i","fifi","Training","bilabial","TrainingItems",0,97,97,78,NA,NA,NA,NA,NA,NA,NA,NA,NA,NA,47,FALSE,19,60.0182588812,NA,"American English","VSH_Exp2","2016_Mar_23_1907",NA
"Recordings/fisa.wav","no","f","s","i","no","a","fisa","Training","bilabial","TrainingItems",0,98,98,34,NA,NA,NA,NA,NA,NA,NA,NA,NA,NA,47,FALSE,19,60.0182588812,NA,"American English","VSH_Exp2","2016_Mar_23_1907",NA
"Recordings/zazu.wav","yes","z","z","a","no","u","zazu","Training","alveolar","TrainingItems",0,99,99,75,NA,NA,NA,NA,NA,NA,NA,NA,NA,NA,47,FALSE,19,60.0182588812,NA,"American English","VSH_Exp2","2016_Mar_23_1907",NA
"Recordings/zuvi.wav","yes","z","v","u","no","i","zuvi","Training","alveolar","TrainingItems",1,0,100,1,NA,NA,NA,NA,NA,NA,NA,NA,NA,NA,47,FALSE,19,60.0182588812,NA,"American English","VSH_Exp2","2016_Mar_23_1907",NA
"Recordings/vavi.wav","yes","v","v","a","no","i","vavi","Training","bilabial","TrainingItems",1,1,101,77,NA,NA,NA,NA,NA,NA,NA,NA,NA,NA,47,FALSE,19,60.0182588812,NA,"American English","VSH_Exp2","2016_Mar_23_1907",NA
"Recordings/pati.wav","no","p","t","a","yes","i","pati","Training","bilabial","TrainingItems",1,2,102,22,NA,NA,NA,NA,NA,NA,NA,NA,NA,NA,47,FALSE,19,60.0182588812,NA,"American English","VSH_Exp2","2016_Mar_23_1907",NA
"Recordings/vivi.wav","yes","v","v","i","no","i","vivi","Training","bilabial","TrainingItems",1,3,103,32,NA,NA,NA,NA,NA,NA,NA,NA,NA,NA,47,FALSE,19,60.0182588812,NA,"American English","VSH_Exp2","2016_Mar_23_1907",NA
"Recordings/sasa.wav","no","s","s","a","no","a","sasa","Training","alveolar","TrainingItems",1,4,104,59,NA,NA,NA,NA,NA,NA,NA,NA,NA,NA,47,FALSE,19,60.0182588812,NA,"American English","VSH_Exp2","2016_Mar_23_1907",NA
"Recordings/zavi.wav","yes","z","v","a","no","i","zavi","Training","alveolar","TrainingItems",1,5,105,76,NA,NA,NA,NA,NA,NA,NA,NA,NA,NA,47,FALSE,19,60.0182588812,NA,"American English","VSH_Exp2","2016_Mar_23_1907",NA
"Recordings/zivu.wav","yes","z","v","i","no","u","zivu","Training","alveolar","TrainingItems",1,6,106,48,NA,NA,NA,NA,NA,NA,NA,NA,NA,NA,47,FALSE,19,60.0182588812,NA,"American English","VSH_Exp2","2016_Mar_23_1907",NA
"Recordings/susa.wav","no","s","s","u","no","a","susa","Training","alveolar","TrainingItems",1,7,107,61,NA,NA,NA,NA,NA,NA,NA,NA,NA,NA,47,FALSE,19,60.0182588812,NA,"American English","VSH_Exp2","2016_Mar_23_1907",NA
"Recordings/vava.wav","yes","v","v","a","no","a","vava","Training","bilabial","TrainingItems",1,8,108,56,NA,NA,NA,NA,NA,NA,NA,NA,NA,NA,47,FALSE,19,60.0182588812,NA,"American English","VSH_Exp2","2016_Mar_23_1907",NA
"Recordings/pata.wav","no","p","t","a","yes","a","pata","Training","bilabial","TrainingItems",1,9,109,97,NA,NA,NA,NA,NA,NA,NA,NA,NA,NA,47,FALSE,19,60.0182588812,NA,"American English","VSH_Exp2","2016_Mar_23_1907",NA
"Recordings/patu.wav","no","p","t","a","yes","u","patu","Training","bilabial","TrainingItems",1,10,110,15,NA,NA,NA,NA,NA,NA,NA,NA,NA,NA,47,FALSE,19,60.0182588812,NA,"American English","VSH_Exp2","2016_Mar_23_1907",NA
"Recordings/pupa.wav","no","p","p","u","yes","a","pupa","Training","bilabial","TrainingItems",1,11,111,73,NA,NA,NA,NA,NA,NA,NA,NA,NA,NA,47,FALSE,19,60.0182588812,NA,"American English","VSH_Exp2","2016_Mar_23_1907",NA
"Recordings/titu.wav","no","t","t","i","yes","u","titu","Training","alveolar","TrainingItems",1,12,112,91,NA,NA,NA,NA,NA,NA,NA,NA,NA,NA,47,FALSE,19,60.0182588812,NA,"American English","VSH_Exp2","2016_Mar_23_1907",NA
"Recordings/vuvi.wav","yes","v","v","u","no","i","vuvi","Training","bilabial","TrainingItems",1,13,113,33,NA,NA,NA,NA,NA,NA,NA,NA,NA,NA,47,FALSE,19,60.0182588812,NA,"American English","VSH_Exp2","2016_Mar_23_1907",NA
"Recordings/zuva.wav","yes","z","v","u","no","a","zuva","Training","alveolar","TrainingItems",1,14,114,17,NA,NA,NA,NA,NA,NA,NA,NA,NA,NA,47,FALSE,19,60.0182588812,NA,"American English","VSH_Exp2","2016_Mar_23_1907",NA
"Recordings/fasa.wav","no","f","s","a","no","a","fasa","Training","bilabial","TrainingItems",1,15,115,5,NA,NA,NA,NA,NA,NA,NA,NA,NA,NA,47,FALSE,19,60.0182588812,NA,"American English","VSH_Exp2","2016_Mar_23_1907",NA
"Recordings/susu.wav","no","s","s","u","no","u","susu","Training","alveolar","TrainingItems",1,16,116,79,NA,NA,NA,NA,NA,NA,NA,NA,NA,NA,47,FALSE,19,60.0182588812,NA,"American English","VSH_Exp2","2016_Mar_23_1907",NA
"Recordings/vuza.wav","yes","v","z","u","no","a","vuza","Training","bilabial","TrainingItems",1,17,117,90,NA,NA,NA,NA,NA,NA,NA,NA,NA,NA,47,FALSE,19,60.0182588812,NA,"American English","VSH_Exp2","2016_Mar_23_1907",NA
"Recordings/vazu.wav","yes","v","z","a","no","u","vazu","Training","bilabial","TrainingItems",1,18,118,24,NA,NA,NA,NA,NA,NA,NA,NA,NA,NA,47,FALSE,19,60.0182588812,NA,"American English","VSH_Exp2","2016_Mar_23_1907",NA
"Recordings/tipi.wav","no","t","p","i","yes","i","tipi","Training","alveolar","TrainingItems",1,19,119,69,NA,NA,NA,NA,NA,NA,NA,NA,NA,NA,47,FALSE,19,60.0182588812,NA,"American English","VSH_Exp2","2016_Mar_23_1907",NA
"Recordings/dudi.wav","yes","d","d","u","yes","i","dudi","Training","alveolar","TrainingItems",1,20,120,95,NA,NA,NA,NA,NA,NA,NA,NA,NA,NA,47,FALSE,19,60.0182588812,NA,"American English","VSH_Exp2","2016_Mar_23_1907",NA
"Recordings/sufu.wav","no","s","f","u","no","u","sufu","Training","alveolar","TrainingItems",1,21,121,65,NA,NA,NA,NA,NA,NA,NA,NA,NA,NA,47,FALSE,19,60.0182588812,NA,"American English","VSH_Exp2","2016_Mar_23_1907",NA
"Recordings/viza.wav","yes","v","z","i","no","a","viza","Training","bilabial","TrainingItems",1,22,122,50,NA,NA,NA,NA,NA,NA,NA,NA,NA,NA,47,FALSE,19,60.0182588812,NA,"American English","VSH_Exp2","2016_Mar_23_1907",NA
"Recordings/vuzu.wav","yes","v","z","u","no","u","vuzu","Training","bilabial","TrainingItems",1,23,123,85,NA,NA,NA,NA,NA,NA,NA,NA,NA,NA,47,FALSE,19,60.0182588812,NA,"American English","VSH_Exp2","2016_Mar_23_1907",NA
"Recordings/fifu.wav","no","f","f","i","no","u","fifu","Training","bilabial","TrainingItems",1,24,124,92,NA,NA,NA,NA,NA,NA,NA,NA,NA,NA,47,FALSE,19,60.0182588812,NA,"American English","VSH_Exp2","2016_Mar_23_1907",NA
"Recordings/zava.wav","yes","z","v","a","no","a","zava","Training","alveolar","TrainingItems",1,25,125,26,NA,NA,NA,NA,NA,NA,NA,NA,NA,NA,47,FALSE,19,60.0182588812,NA,"American English","VSH_Exp2","2016_Mar_23_1907",NA
"Recordings/zizi.wav","yes","z","z","i","no","i","zizi","Training","alveolar","TrainingItems",1,26,126,60,NA,NA,NA,NA,NA,NA,NA,NA,NA,NA,47,FALSE,19,60.0182588812,NA,"American English","VSH_Exp2","2016_Mar_23_1907",NA
"Recordings/tupa.wav","no","t","p","u","yes","a","tupa","Training","alveolar","TrainingItems",1,27,127,28,NA,NA,NA,NA,NA,NA,NA,NA,NA,NA,47,FALSE,19,60.0182588812,NA,"American English","VSH_Exp2","2016_Mar_23_1907",NA
"Recordings/pipa.wav","no","p","p","i","yes","a","pipa","Training","bilabial","TrainingItems",1,28,128,72,NA,NA,NA,NA,NA,NA,NA,NA,NA,NA,47,FALSE,19,60.0182588812,NA,"American English","VSH_Exp2","2016_Mar_23_1907",NA
"Recordings/fafi.wav","no","f","f","a","no","i","fafi","Training","bilabial","TrainingItems",1,29,129,53,NA,NA,NA,NA,NA,NA,NA,NA,NA,NA,47,FALSE,19,60.0182588812,NA,"American English","VSH_Exp2","2016_Mar_23_1907",NA
"Recordings/bubu.wav","yes","b","b","u","yes","u","bubu","Training","bilabial","TrainingItems",1,30,130,45,NA,NA,NA,NA,NA,NA,NA,NA,NA,NA,47,FALSE,19,60.0182588812,NA,"American English","VSH_Exp2","2016_Mar_23_1907",NA
"Recordings/fisi.wav","no","f","s","i","no","i","fisi","Training","bilabial","TrainingItems",1,31,131,6,NA,NA,NA,NA,NA,NA,NA,NA,NA,NA,47,FALSE,19,60.0182588812,NA,"American English","VSH_Exp2","2016_Mar_23_1907",NA
"Recordings/piti.wav","no","p","t","i","yes","i","piti","Training","bilabial","TrainingItems",1,32,132,19,NA,NA,NA,NA,NA,NA,NA,NA,NA,NA,47,FALSE,19,60.0182588812,NA,"American English","VSH_Exp2","2016_Mar_23_1907",NA
"Recordings/ziza.wav","yes","z","z","i","no","a","ziza","Training","alveolar","TrainingItems",1,33,133,25,NA,NA,NA,NA,NA,NA,NA,NA,NA,NA,47,FALSE,19,60.0182588812,NA,"American English","VSH_Exp2","2016_Mar_23_1907",NA
"Recordings/sisi.wav","no","s","s","i","no","i","sisi","Training","alveolar","TrainingItems",1,34,134,51,NA,NA,NA,NA,NA,NA,NA,NA,NA,NA,47,FALSE,19,60.0182588812,NA,"American English","VSH_Exp2","2016_Mar_23_1907",NA
"Recordings/zuzu.wav","yes","z","z","u","no","u","zuzu","Training","alveolar","TrainingItems",1,35,135,8,NA,NA,NA,NA,NA,NA,NA,NA,NA,NA,47,FALSE,19,60.0182588812,NA,"American English","VSH_Exp2","2016_Mar_23_1907",NA
"Recordings/fifa.wav","no","f","f","i","no","a","fifa","Training","bilabial","TrainingItems",1,36,136,40,NA,NA,NA,NA,NA,NA,NA,NA,NA,NA,47,FALSE,19,60.0182588812,NA,"American English","VSH_Exp2","2016_Mar_23_1907",NA
"Recordings/zizu.wav","yes","z","z","i","no","u","zizu","Training","alveolar","TrainingItems",1,37,137,14,NA,NA,NA,NA,NA,NA,NA,NA,NA,NA,47,FALSE,19,60.0182588812,NA,"American English","VSH_Exp2","2016_Mar_23_1907",NA
"Recordings/zivi.wav","yes","z","v","i","no","i","zivi","Training","alveolar","TrainingItems",1,38,138,99,NA,NA,NA,NA,NA,NA,NA,NA,NA,NA,47,FALSE,19,60.0182588812,NA,"American English","VSH_Exp2","2016_Mar_23_1907",NA
"Recordings/vizi.wav","yes","v","z","i","no","i","vizi","Training","bilabial","TrainingItems",1,39,139,74,NA,NA,NA,NA,NA,NA,NA,NA,NA,NA,47,FALSE,19,60.0182588812,NA,"American English","VSH_Exp2","2016_Mar_23_1907",NA
"Recordings/fufu.wav","no","f","f","u","no","u","fufu","Training","bilabial","TrainingItems",1,40,140,47,NA,NA,NA,NA,NA,NA,NA,NA,NA,NA,47,FALSE,19,60.0182588812,NA,"American English","VSH_Exp2","2016_Mar_23_1907",NA
"Recordings/safa.wav","no","s","f","a","no","a","safa","Training","alveolar","TrainingItems",1,41,141,35,NA,NA,NA,NA,NA,NA,NA,NA,NA,NA,47,FALSE,19,60.0182588812,NA,"American English","VSH_Exp2","2016_Mar_23_1907",NA
"Recordings/fisa.wav","no","f","s","i","no","a","fisa","Training","bilabial","TrainingItems",1,42,142,34,NA,NA,NA,NA,NA,NA,NA,NA,NA,NA,47,FALSE,19,60.0182588812,NA,"American English","VSH_Exp2","2016_Mar_23_1907",NA
"Recordings/papa.wav","no","p","p","a","yes","a","papa","Training","bilabial","TrainingItems",1,43,143,81,NA,NA,NA,NA,NA,NA,NA,NA,NA,NA,47,FALSE,19,60.0182588812,NA,"American English","VSH_Exp2","2016_Mar_23_1907",NA
"Recordings/dida.wav","yes","d","d","i","yes","a","dida","Training","alveolar","TrainingItems",1,44,144,16,NA,NA,NA,NA,NA,NA,NA,NA,NA,NA,47,FALSE,19,60.0182588812,NA,"American English","VSH_Exp2","2016_Mar_23_1907",NA
"Recordings/dudu.wav","yes","d","d","u","yes","u","dudu","Training","alveolar","TrainingItems",1,45,145,29,NA,NA,NA,NA,NA,NA,NA,NA,NA,NA,47,FALSE,19,60.0182588812,NA,"American English","VSH_Exp2","2016_Mar_23_1907",NA
"Recordings/fusa.wav","no","f","s","u","no","a","fusa","Training","bilabial","TrainingItems",1,46,146,30,NA,NA,NA,NA,NA,NA,NA,NA,NA,NA,47,FALSE,19,60.0182588812,NA,"American English","VSH_Exp2","2016_Mar_23_1907",NA
"Recordings/baba.wav","yes","b","b","a","yes","a","baba","Training","bilabial","TrainingItems",1,47,147,94,NA,NA,NA,NA,NA,NA,NA,NA,NA,NA,47,FALSE,19,60.0182588812,NA,"American English","VSH_Exp2","2016_Mar_23_1907",NA
"Recordings/bibi.wav","yes","b","b","i","yes","i","bibi","Training","bilabial","TrainingItems",1,48,148,89,NA,NA,NA,NA,NA,NA,NA,NA,NA,NA,47,FALSE,19,60.0182588812,NA,"American English","VSH_Exp2","2016_Mar_23_1907",NA
"Recordings/dadu.wav","yes","d","d","a","yes","u","dadu","Training","alveolar","TrainingItems",1,49,149,88,NA,NA,NA,NA,NA,NA,NA,NA,NA,NA,47,FALSE,19,60.0182588812,NA,"American English","VSH_Exp2","2016_Mar_23_1907",NA
"Recordings/dada.wav","yes","d","d","a","yes","a","dada","Training","alveolar","TrainingItems",1,50,150,63,NA,NA,NA,NA,NA,NA,NA,NA,NA,NA,47,FALSE,19,60.0182588812,NA,"American English","VSH_Exp2","2016_Mar_23_1907",NA
"Recordings/safi.wav","no","s","f","a","no","i","safi","Training","alveolar","TrainingItems",1,51,151,2,NA,NA,NA,NA,NA,NA,NA,NA,NA,NA,47,FALSE,19,60.0182588812,NA,"American English","VSH_Exp2","2016_Mar_23_1907",NA
"Recordings/tapa.wav","no","t","p","a","yes","a","tapa","Training","alveolar","TrainingItems",1,52,152,83,NA,NA,NA,NA,NA,NA,NA,NA,NA,NA,47,FALSE,19,60.0182588812,NA,"American English","VSH_Exp2","2016_Mar_23_1907",NA
"Recordings/ziva.wav","yes","z","v","i","no","a","ziva","Training","alveolar","TrainingItems",1,53,153,68,NA,NA,NA,NA,NA,NA,NA,NA,NA,NA,47,FALSE,19,60.0182588812,NA,"American English","VSH_Exp2","2016_Mar_23_1907",NA
"Recordings/vavu.wav","yes","v","v","a","no","u","vavu","Training","bilabial","TrainingItems",1,54,154,12,NA,NA,NA,NA,NA,NA,NA,NA,NA,NA,47,FALSE,19,60.0182588812,NA,"American English","VSH_Exp2","2016_Mar_23_1907",NA
"Recordings/vaza.wav","yes","v","z","a","no","a","vaza","Training","bilabial","TrainingItems",1,55,155,39,NA,NA,NA,NA,NA,NA,NA,NA,NA,NA,47,FALSE,19,60.0182588812,NA,"American English","VSH_Exp2","2016_Mar_23_1907",NA
"Recordings/pupu.wav","no","p","p","u","yes","u","pupu","Training","bilabial","TrainingItems",1,56,156,62,NA,NA,NA,NA,NA,NA,NA,NA,NA,NA,47,FALSE,19,60.0182588812,NA,"American English","VSH_Exp2","2016_Mar_23_1907",NA
"Recordings/fasu.wav","no","f","s","a","no","u","fasu","Training","bilabial","TrainingItems",1,57,157,31,NA,NA,NA,NA,NA,NA,NA,NA,NA,NA,47,FALSE,19,60.0182588812,NA,"American English","VSH_Exp2","2016_Mar_23_1907",NA
"Recordings/vazi.wav","yes","v","z","a","no","i","vazi","Training","bilabial","TrainingItems",1,58,158,52,NA,NA,NA,NA,NA,NA,NA,NA,NA,NA,47,FALSE,19,60.0182588812,NA,"American English","VSH_Exp2","2016_Mar_23_1907",NA
"Recordings/tupi.wav","no","t","p","u","yes","i","tupi","Training","alveolar","TrainingItems",1,59,159,13,NA,NA,NA,NA,NA,NA,NA,NA,NA,NA,47,FALSE,19,60.0182588812,NA,"American English","VSH_Exp2","2016_Mar_23_1907",NA
"Recordings/sisu.wav","no","s","s","i","no","u","sisu","Training","alveolar","TrainingItems",1,60,160,9,NA,NA,NA,NA,NA,NA,NA,NA,NA,NA,47,FALSE,19,60.0182588812,NA,"American English","VSH_Exp2","2016_Mar_23_1907",NA
"Recordings/pita.wav","no","p","t","i","yes","a","pita","Training","bilabial","TrainingItems",1,61,161,66,NA,NA,NA,NA,NA,NA,NA,NA,NA,NA,47,FALSE,19,60.0182588812,NA,"American English","VSH_Exp2","2016_Mar_23_1907",NA
"Recordings/pitu.wav","no","p","t","i","yes","u","pitu","Training","bilabial","TrainingItems",1,62,162,54,NA,NA,NA,NA,NA,NA,NA,NA,NA,NA,47,FALSE,19,60.0182588812,NA,"American English","VSH_Exp2","2016_Mar_23_1907",NA
"Recordings/fifi.wav","no","f","f","i","no","i","fifi","Training","bilabial","TrainingItems",1,63,163,78,NA,NA,NA,NA,NA,NA,NA,NA,NA,NA,47,FALSE,19,60.0182588812,NA,"American English","VSH_Exp2","2016_Mar_23_1907",NA
"Recordings/fafu.wav","no","f","f","a","no","u","fafu","Training","bilabial","TrainingItems",1,64,164,42,NA,NA,NA,NA,NA,NA,NA,NA,NA,NA,47,FALSE,19,60.0182588812,NA,"American English","VSH_Exp2","2016_Mar_23_1907",NA
"Recordings/fisu.wav","no","f","s","i","no","u","fisu","Training","bilabial","TrainingItems",1,65,165,27,NA,NA,NA,NA,NA,NA,NA,NA,NA,NA,47,FALSE,19,60.0182588812,NA,"American English","VSH_Exp2","2016_Mar_23_1907",NA
"Recordings/buba.wav","yes","b","b","u","yes","a","buba","Training","bilabial","TrainingItems",1,66,166,84,NA,NA,NA,NA,NA,NA,NA,NA,NA,NA,47,FALSE,19,60.0182588812,NA,"American English","VSH_Exp2","2016_Mar_23_1907",NA
"Recordings/zazi.wav","yes","z","z","a","no","i","zazi","Training","alveolar","TrainingItems",1,67,167,96,NA,NA,NA,NA,NA,NA,NA,NA,NA,NA,47,FALSE,19,60.0182588812,NA,"American English","VSH_Exp2","2016_Mar_23_1907",NA
"Recordings/safu.wav","no","s","f","a","no","u","safu","Training","alveolar","TrainingItems",1,68,168,23,NA,NA,NA,NA,NA,NA,NA,NA,NA,NA,47,FALSE,19,60.0182588812,NA,"American English","VSH_Exp2","2016_Mar_23_1907",NA
"Recordings/sufa.wav","no","s","f","u","no","a","sufa","Training","alveolar","TrainingItems",1,69,169,3,NA,NA,NA,NA,NA,NA,NA,NA,NA,NA,47,FALSE,19,60.0182588812,NA,"American English","VSH_Exp2","2016_Mar_23_1907",NA
"Recordings/tata.wav","no","t","t","a","yes","a","tata","Training","alveolar","TrainingItems",1,70,170,87,NA,NA,NA,NA,NA,NA,NA,NA,NA,NA,47,FALSE,19,60.0182588812,NA,"American English","VSH_Exp2","2016_Mar_23_1907",NA
"Recordings/pupi.wav","no","p","p","u","yes","i","pupi","Training","bilabial","TrainingItems",1,71,171,86,NA,NA,NA,NA,NA,NA,NA,NA,NA,NA,47,FALSE,19,60.0182588812,NA,"American English","VSH_Exp2","2016_Mar_23_1907",NA
"Recordings/fusu.wav","no","f","s","u","no","u","fusu","Training","bilabial","TrainingItems",1,72,172,10,NA,NA,NA,NA,NA,NA,NA,NA,NA,NA,47,FALSE,19,60.0182588812,NA,"American English","VSH_Exp2","2016_Mar_23_1907",NA
"Recordings/duda.wav","yes","d","d","u","yes","a","duda","Training","alveolar","TrainingItems",1,73,173,98,NA,NA,NA,NA,NA,NA,NA,NA,NA,NA,47,FALSE,19,60.0182588812,NA,"American English","VSH_Exp2","2016_Mar_23_1907",NA
"Recordings/fusi.wav","no","f","s","u","no","i","fusi","Training","bilabial","TrainingItems",1,74,174,38,NA,NA,NA,NA,NA,NA,NA,NA,NA,NA,47,FALSE,19,60.0182588812,NA,"American English","VSH_Exp2","2016_Mar_23_1907",NA
"Recordings/fufa.wav","no","f","f","u","no","a","fufa","Training","bilabial","TrainingItems",1,75,175,43,NA,NA,NA,NA,NA,NA,NA,NA,NA,NA,47,FALSE,19,60.0182588812,NA,"American English","VSH_Exp2","2016_Mar_23_1907",NA
"Recordings/sufi.wav","no","s","f","u","no","i","sufi","Training","alveolar","TrainingItems",1,76,176,58,NA,NA,NA,NA,NA,NA,NA,NA,NA,NA,47,FALSE,19,60.0182588812,NA,"American English","VSH_Exp2","2016_Mar_23_1907",NA
"Recordings/viva.wav","yes","v","v","i","no","a","viva","Training","bilabial","TrainingItems",1,77,177,18,NA,NA,NA,NA,NA,NA,NA,NA,NA,NA,47,FALSE,19,60.0182588812,NA,"American English","VSH_Exp2","2016_Mar_23_1907",NA
"Recordings/zuzi.wav","yes","z","z","u","no","i","zuzi","Training","alveolar","TrainingItems",1,78,178,46,NA,NA,NA,NA,NA,NA,NA,NA,NA,NA,47,FALSE,19,60.0182588812,NA,"American English","VSH_Exp2","2016_Mar_23_1907",NA
"Recordings/zaza.wav","yes","z","z","a","no","a","zaza","Training","alveolar","TrainingItems",1,79,179,80,NA,NA,NA,NA,NA,NA,NA,NA,NA,NA,47,FALSE,19,60.0182588812,NA,"American English","VSH_Exp2","2016_Mar_23_1907",NA
"Recordings/tutu.wav","no","t","t","u","yes","u","tutu","Training","alveolar","TrainingItems",1,80,180,55,NA,NA,NA,NA,NA,NA,NA,NA,NA,NA,47,FALSE,19,60.0182588812,NA,"American English","VSH_Exp2","2016_Mar_23_1907",NA
"Recordings/tuta.wav","no","t","t","u","yes","a","tuta","Training","alveolar","TrainingItems",1,81,181,37,NA,NA,NA,NA,NA,NA,NA,NA,NA,NA,47,FALSE,19,60.0182588812,NA,"American English","VSH_Exp2","2016_Mar_23_1907",NA
"Recordings/puta.wav","no","p","t","u","yes","a","puta","Training","bilabial","TrainingItems",1,82,182,7,NA,NA,NA,NA,NA,NA,NA,NA,NA,NA,47,FALSE,19,60.0182588812,NA,"American English","VSH_Exp2","2016_Mar_23_1907",NA
"Recordings/fasi.wav","no","f","s","a","no","i","fasi","Training","bilabial","TrainingItems",1,83,183,44,NA,NA,NA,NA,NA,NA,NA,NA,NA,NA,47,FALSE,19,60.0182588812,NA,"American English","VSH_Exp2","2016_Mar_23_1907",NA
"Recordings/didu.wav","yes","d","d","i","yes","u","didu","Training","alveolar","TrainingItems",1,84,184,11,NA,NA,NA,NA,NA,NA,NA,NA,NA,NA,47,FALSE,19,60.0182588812,NA,"American English","VSH_Exp2","2016_Mar_23_1907",NA
"Recordings/vizu.wav","yes","v","z","i","no","u","vizu","Training","bilabial","TrainingItems",1,85,185,93,NA,NA,NA,NA,NA,NA,NA,NA,NA,NA,47,FALSE,19,60.0182588812,NA,"American English","VSH_Exp2","2016_Mar_23_1907",NA
"Recordings/vuzi.wav","yes","v","z","u","no","i","vuzi","Training","bilabial","TrainingItems",1,86,186,82,NA,NA,NA,NA,NA,NA,NA,NA,NA,NA,47,FALSE,19,60.0182588812,NA,"American English","VSH_Exp2","2016_Mar_23_1907",NA
"Recordings/tita.wav","no","t","t","i","yes","a","tita","Training","alveolar","TrainingItems",1,87,187,41,NA,NA,NA,NA,NA,NA,NA,NA,NA,NA,47,FALSE,19,60.0182588812,NA,"American English","VSH_Exp2","2016_Mar_23_1907",NA
"Recordings/sifi.wav","no","s","f","i","no","i","sifi","Training","alveolar","TrainingItems",1,88,188,71,NA,NA,NA,NA,NA,NA,NA,NA,NA,NA,47,FALSE,19,60.0182588812,NA,"American English","VSH_Exp2","2016_Mar_23_1907",NA
"Recordings/dadi.wav","yes","d","d","a","yes","i","dadi","Training","alveolar","TrainingItems",1,89,189,0,NA,NA,NA,NA,NA,NA,NA,NA,NA,NA,47,FALSE,19,60.0182588812,NA,"American English","VSH_Exp2","2016_Mar_23_1907",NA
"Recordings/tupu.wav","no","t","p","u","yes","u","tupu","Training","alveolar","TrainingItems",1,90,190,21,NA,NA,NA,NA,NA,NA,NA,NA,NA,NA,47,FALSE,19,60.0182588812,NA,"American English","VSH_Exp2","2016_Mar_23_1907",NA
"Recordings/papi.wav","no","p","p","a","yes","i","papi","Training","bilabial","TrainingItems",1,91,191,36,NA,NA,NA,NA,NA,NA,NA,NA,NA,NA,47,FALSE,19,60.0182588812,NA,"American English","VSH_Exp2","2016_Mar_23_1907",NA
"Recordings/bubi.wav","yes","b","b","u","yes","i","bubi","Training","bilabial","TrainingItems",1,92,192,57,NA,NA,NA,NA,NA,NA,NA,NA,NA,NA,47,FALSE,19,60.0182588812,NA,"American English","VSH_Exp2","2016_Mar_23_1907",NA
"Recordings/zuvu.wav","yes","z","v","u","no","u","zuvu","Training","alveolar","TrainingItems",1,93,193,4,NA,NA,NA,NA,NA,NA,NA,NA,NA,NA,47,FALSE,19,60.0182588812,NA,"American English","VSH_Exp2","2016_Mar_23_1907",NA
"Recordings/vivu.wav","yes","v","v","i","no","u","vivu","Training","bilabial","TrainingItems",1,94,194,64,NA,NA,NA,NA,NA,NA,NA,NA,NA,NA,47,FALSE,19,60.0182588812,NA,"American English","VSH_Exp2","2016_Mar_23_1907",NA
"Recordings/fufi.wav","no","f","f","u","no","i","fufi","Training","bilabial","TrainingItems",1,95,195,20,NA,NA,NA,NA,NA,NA,NA,NA,NA,NA,47,FALSE,19,60.0182588812,NA,"American English","VSH_Exp2","2016_Mar_23_1907",NA
"Recordings/tati.wav","no","t","t","a","yes","i","tati","Training","alveolar","TrainingItems",1,96,196,70,NA,NA,NA,NA,NA,NA,NA,NA,NA,NA,47,FALSE,19,60.0182588812,NA,"American English","VSH_Exp2","2016_Mar_23_1907",NA
"Recordings/zazu.wav","yes","z","z","a","no","u","zazu","Training","alveolar","TrainingItems",1,97,197,75,NA,NA,NA,NA,NA,NA,NA,NA,NA,NA,47,FALSE,19,60.0182588812,NA,"American English","VSH_Exp2","2016_Mar_23_1907",NA
"Recordings/tatu.wav","no","t","t","a","yes","u","tatu","Training","alveolar","TrainingItems",1,98,198,49,NA,NA,NA,NA,NA,NA,NA,NA,NA,NA,47,FALSE,19,60.0182588812,NA,"American English","VSH_Exp2","2016_Mar_23_1907",NA
"Recordings/didi.wav","yes","d","d","i","yes","i","didi","Training","alveolar","TrainingItems",1,99,199,67,NA,NA,NA,NA,NA,NA,NA,NA,NA,NA,47,FALSE,19,60.0182588812,NA,"American English","VSH_Exp2","2016_Mar_23_1907",NA
NA,NA,NA,NA,NA,NA,NA,NA,NA,NA,NA,NA,NA,NA,NA,NA,NA,NA,NA,NA,NA,"space",2.87061190605,NA,NA,47,FALSE,19,60.0182588812,NA,"American English","VSH_Exp2","2016_Mar_23_1907",NA
"Recordings/saza.wav","no","s","z","a","no","a","saza","Controls","alveolar","StopControls",NA,NA,NA,NA,0,0,0,33,NA,NA,NA,NA,"Yes",5.442,47,FALSE,19,60.0182588812,NA,"American English","VSH_Exp2","2016_Mar_23_1907",NA
"Recordings/pivi.wav","no","p","v","i","yes","i","pivi","Controls","bilabial","NoPatternControls",NA,NA,NA,NA,0,1,1,57,NA,NA,NA,NA,"Yes",2.305,47,FALSE,19,60.0182588812,NA,"American English","VSH_Exp2","2016_Mar_23_1907",NA
"Recordings/fusu.wav","no","f","s","u","no","u","fusu","Test","bilabial","OldTestStimuli",NA,NA,NA,NA,0,2,2,0,NA,NA,NA,NA,"Yes",1.237,47,FALSE,19,60.0182588812,NA,"American English","VSH_Exp2","2016_Mar_23_1907",NA
"Recordings/duda.wav","yes","d","d","u","yes","a","duda","Test","alveolar","OldTestStimuli",NA,NA,NA,NA,0,3,3,4,NA,NA,NA,NA,"Yes",0.904,47,FALSE,19,60.0182588812,NA,"American English","VSH_Exp2","2016_Mar_23_1907",NA
"Recordings/duba.wav","yes","d","b","u","yes","a","duba","Test","alveolar","NewConsTestStimuli",NA,NA,NA,NA,0,4,4,11,NA,NA,NA,NA,"Yes",1.07,47,FALSE,19,60.0182588812,NA,"American English","VSH_Exp2","2016_Mar_23_1907",NA
"Recordings/dabu.wav","yes","d","b","a","yes","u","dabu","Test","alveolar","NewConsTestStimuli",NA,NA,NA,NA,0,5,5,18,NA,NA,NA,NA,"Yes",1.521,47,FALSE,19,60.0182588812,NA,"American English","VSH_Exp2","2016_Mar_23_1907",NA
"Recordings/zusu.wav","yes","z","s","u","no","u","zusu","Controls","alveolar","StopControls",NA,NA,NA,NA,0,6,6,38,NA,NA,NA,NA,"Yes",1.439,47,FALSE,19,60.0182588812,NA,"American English","VSH_Exp2","2016_Mar_23_1907",NA
"Recordings/puva.wav","no","p","v","u","yes","a","puva","Controls","bilabial","NoPatternControls",NA,NA,NA,NA,0,7,7,52,NA,NA,NA,NA,"Yes",1.336,47,FALSE,19,60.0182588812,NA,"American English","VSH_Exp2","2016_Mar_23_1907",NA
"Recordings/buda.wav","yes","b","d","u","yes","a","buda","Test","bilabial","NewConsTestStimuli",NA,NA,NA,NA,0,8,8,12,NA,NA,NA,NA,"Yes",1.471,47,FALSE,19,60.0182588812,NA,"American English","VSH_Exp2","2016_Mar_23_1907",NA
"Recordings/pabi.wav","no","p","b","a","yes","i","pabi","Controls","bilabial","StopControls",NA,NA,NA,NA,0,9,9,32,NA,NA,NA,NA,"No",2.221,47,FALSE,19,60.0182588812,NA,"American English","VSH_Exp2","2016_Mar_23_1907",NA
"Recordings/badi.wav","yes","b","d","a","yes","i","badi","Test","bilabial","NewConsTestStimuli",NA,NA,NA,NA,0,10,10,17,NA,NA,NA,NA,"Yes",1.152,47,FALSE,19,60.0182588812,NA,"American English","VSH_Exp2","2016_Mar_23_1907",NA
"Recordings/fifa.wav","no","f","f","i","no","a","fifa","Test","bilabial","OldTestStimuli",NA,NA,NA,NA,0,11,11,7,NA,NA,NA,NA,"Yes",1.003,47,FALSE,19,60.0182588812,NA,"American English","VSH_Exp2","2016_Mar_23_1907",NA
"Recordings/susi.wav","no","s","s","u","no","i","susi","Test","alveolar","NewWordTestStimuli",NA,NA,NA,NA,0,12,12,29,NA,NA,NA,NA,"Yes",1.154,47,FALSE,19,60.0182588812,NA,"American English","VSH_Exp2","2016_Mar_23_1907",NA
"Recordings/bidu.wav","yes","b","d","i","yes","u","bidu","Test","bilabial","NewConsTestStimuli",NA,NA,NA,NA,0,13,13,15,NA,NA,NA,NA,"Yes",0.92,47,FALSE,19,60.0182588812,NA,"American English","VSH_Exp2","2016_Mar_23_1907",NA
"Recordings/zubi.wav","yes","z","b","u","no","i","zubi","Controls","alveolar","VoicingControls",NA,NA,NA,NA,0,14,14,41,NA,NA,NA,NA,"Yes",2.004,47,FALSE,19,60.0182588812,NA,"American English","VSH_Exp2","2016_Mar_23_1907",NA
"Recordings/dibi.wav","yes","d","b","i","yes","i","dibi","Test","alveolar","NewConsTestStimuli",NA,NA,NA,NA,0,15,15,14,NA,NA,NA,NA,"Yes",1.003,47,FALSE,19,60.0182588812,NA,"American English","VSH_Exp2","2016_Mar_23_1907",NA
"Recordings/zudu.wav","yes","z","d","u","no","u","zudu","Controls","alveolar","VoicingControls",NA,NA,NA,NA,0,16,16,48,NA,NA,NA,NA,"Yes",1.587,47,FALSE,19,60.0182588812,NA,"American English","VSH_Exp2","2016_Mar_23_1907",NA
"Recordings/patu.wav","no","p","t","a","yes","u","patu","Test","bilabial","OldTestStimuli",NA,NA,NA,NA,0,17,17,6,NA,NA,NA,NA,"Yes",0.852,47,FALSE,19,60.0182588812,NA,"American English","VSH_Exp2","2016_Mar_23_1907",NA
"Recordings/dafa.wav","yes","d","f","a","yes","a","dafa","Controls","alveolar","NoPatternControls",NA,NA,NA,NA,0,18,18,56,NA,NA,NA,NA,"No",1.77,47,FALSE,19,60.0182588812,NA,"American English","VSH_Exp2","2016_Mar_23_1907",NA
"Recordings/zupu.wav","yes","z","p","u","no","u","zupu","Controls","alveolar","NoPatternControls",NA,NA,NA,NA,0,19,19,58,NA,NA,NA,NA,"Yes",3.806,47,FALSE,19,60.0182588812,NA,"American English","VSH_Exp2","2016_Mar_23_1907",NA
"Recordings/dusa.wav","yes","d","s","u","yes","a","dusa","Controls","alveolar","NoPatternControls",NA,NA,NA,NA,0,20,20,55,NA,NA,NA,NA,"Yes",2.638,47,FALSE,19,60.0182588812,NA,"American English","VSH_Exp2","2016_Mar_23_1907",NA
"Recordings/zupa.wav","yes","z","p","u","no","a","zupa","Controls","alveolar","NoPatternControls",NA,NA,NA,NA,0,21,21,51,NA,NA,NA,NA,"Yes",1.12,47,FALSE,19,60.0182588812,NA,"American English","VSH_Exp2","2016_Mar_23_1907",NA
"Recordings/sasu.wav","no","s","s","a","no","u","sasu","Test","alveolar","NewWordTestStimuli",NA,NA,NA,NA,0,22,22,24,NA,NA,NA,NA,"Yes",1.02,47,FALSE,19,60.0182588812,NA,"American English","VSH_Exp2","2016_Mar_23_1907",NA
"Recordings/buza.wav","yes","b","z","u","yes","a","buza","Controls","bilabial","VoicingControls",NA,NA,NA,NA,0,23,23,40,NA,NA,NA,NA,"No",1.538,47,FALSE,19,60.0182588812,NA,"American English","VSH_Exp2","2016_Mar_23_1907",NA
"Recordings/pafu.wav","no","p","f","a","yes","u","pafu","Controls","bilabial","VoicingControls",NA,NA,NA,NA,0,24,24,42,NA,NA,NA,NA,"Yes",1.253,47,FALSE,19,60.0182588812,NA,"American English","VSH_Exp2","2016_Mar_23_1907",NA
"Recordings/sidi.wav","no","s","d","i","no","i","sidi","Controls","alveolar","NoPatternControls",NA,NA,NA,NA,0,25,25,59,NA,NA,NA,NA,"Yes",1.254,47,FALSE,19,60.0182588812,NA,"American English","VSH_Exp2","2016_Mar_23_1907",NA
"Recordings/zufi.wav","yes","z","f","u","no","i","zufi","Controls","alveolar","StopControls",NA,NA,NA,NA,0,26,26,31,NA,NA,NA,NA,"Yes",1.003,47,FALSE,19,60.0182588812,NA,"American English","VSH_Exp2","2016_Mar_23_1907",NA
"Recordings/duti.wav","yes","d","t","u","yes","i","duti","Controls","alveolar","StopControls",NA,NA,NA,NA,0,27,27,35,NA,NA,NA,NA,"Yes",1.104,47,FALSE,19,60.0182588812,NA,"American English","VSH_Exp2","2016_Mar_23_1907",NA
"Recordings/dubi.wav","yes","d","b","u","yes","i","dubi","Test","alveolar","NewConsTestStimuli",NA,NA,NA,NA,0,28,28,16,NA,NA,NA,NA,"Yes",1.004,47,FALSE,19,60.0182588812,NA,"American English","VSH_Exp2","2016_Mar_23_1907",NA
"Recordings/sata.wav","no","s","t","a","no","a","sata","Controls","alveolar","VoicingControls",NA,NA,NA,NA,0,29,29,44,NA,NA,NA,NA,"No",2.456,47,FALSE,19,60.0182588812,NA,"American English","VSH_Exp2","2016_Mar_23_1907",NA
"Recordings/sibu.wav","no","s","b","i","no","u","sibu","Controls","alveolar","NoPatternControls",NA,NA,NA,NA,0,30,30,54,NA,NA,NA,NA,"Yes",1.488,47,FALSE,19,60.0182588812,NA,"American English","VSH_Exp2","2016_Mar_23_1907",NA
"Recordings/sada.wav","no","s","d","a","no","a","sada","Controls","alveolar","NoPatternControls",NA,NA,NA,NA,0,31,31,53,NA,NA,NA,NA,"No",3.44,47,FALSE,19,60.0182588812,NA,"American English","VSH_Exp2","2016_Mar_23_1907",NA
"Recordings/duzi.wav","yes","d","z","u","yes","i","duzi","Controls","alveolar","VoicingControls",NA,NA,NA,NA,0,32,32,45,NA,NA,NA,NA,"Yes",1.103,47,FALSE,19,60.0182588812,NA,"American English","VSH_Exp2","2016_Mar_23_1907",NA
"Recordings/sifa.wav","no","s","f","i","no","a","sifa","Test","alveolar","NewWordTestStimuli",NA,NA,NA,NA,0,33,33,23,NA,NA,NA,NA,"Yes",1.053,47,FALSE,19,60.0182588812,NA,"American English","VSH_Exp2","2016_Mar_23_1907",NA
"Recordings/dipi.wav","yes","d","p","i","yes","i","dipi","Controls","alveolar","StopControls",NA,NA,NA,NA,0,34,34,36,NA,NA,NA,NA,"Yes",1.956,47,FALSE,19,60.0182588812,NA,"American English","VSH_Exp2","2016_Mar_23_1907",NA
"Recordings/babu.wav","yes","b","b","a","yes","u","babu","Test","bilabial","NewWordTestStimuli",NA,NA,NA,NA,0,35,35,26,NA,NA,NA,NA,"Yes",1.537,47,FALSE,19,60.0182588812,NA,"American English","VSH_Exp2","2016_Mar_23_1907",NA
"Recordings/budi.wav","yes","b","d","u","yes","i","budi","Test","bilabial","NewConsTestStimuli",NA,NA,NA,NA,0,36,36,13,NA,NA,NA,NA,"Yes",0.836,47,FALSE,19,60.0182588812,NA,"American English","VSH_Exp2","2016_Mar_23_1907",NA
"Recordings/fafi.wav","no","f","f","a","no","i","fafi","Test","bilabial","OldTestStimuli",NA,NA,NA,NA,0,37,37,9,NA,NA,NA,NA,"Yes",0.718,47,FALSE,19,60.0182588812,NA,"American English","VSH_Exp2","2016_Mar_23_1907",NA
"Recordings/savu.wav","no","s","v","a","no","u","savu","Controls","alveolar","StopControls",NA,NA,NA,NA,0,38,38,34,NA,NA,NA,NA,"No",1.888,47,FALSE,19,60.0182588812,NA,"American English","VSH_Exp2","2016_Mar_23_1907",NA
"Recordings/sapu.wav","no","s","p","a","no","u","sapu","Controls","alveolar","VoicingControls",NA,NA,NA,NA,0,39,39,49,NA,NA,NA,NA,"No",1.188,47,FALSE,19,60.0182588812,NA,"American English","VSH_Exp2","2016_Mar_23_1907",NA
"Recordings/divi.wav","yes","d","v","i","yes","i","divi","Controls","alveolar","VoicingControls",NA,NA,NA,NA,0,40,40,46,NA,NA,NA,NA,"Yes",1.069,47,FALSE,19,60.0182588812,NA,"American English","VSH_Exp2","2016_Mar_23_1907",NA
"Recordings/puba.wav","no","p","b","u","yes","a","puba","Controls","bilabial","StopControls",NA,NA,NA,NA,0,41,41,37,NA,NA,NA,NA,"Yes",1.171,47,FALSE,19,60.0182588812,NA,"American English","VSH_Exp2","2016_Mar_23_1907",NA
"Recordings/tutu.wav","no","t","t","u","yes","u","tutu","Test","alveolar","OldTestStimuli",NA,NA,NA,NA,0,42,42,3,NA,NA,NA,NA,"Yes",1.103,47,FALSE,19,60.0182588812,NA,"American English","VSH_Exp2","2016_Mar_23_1907",NA
"Recordings/zuza.wav","yes","z","z","u","no","a","zuza","Test","alveolar","NewWordTestStimuli",NA,NA,NA,NA,0,43,43,28,NA,NA,NA,NA,"Yes",0.953,47,FALSE,19,60.0182588812,NA,"American English","VSH_Exp2","2016_Mar_23_1907",NA
"Recordings/puti.wav","no","p","t","u","yes","i","puti","Test","bilabial","NewWordTestStimuli",NA,NA,NA,NA,0,44,44,27,NA,NA,NA,NA,"Yes",0.752,47,FALSE,19,60.0182588812,NA,"American English","VSH_Exp2","2016_Mar_23_1907",NA
"Recordings/fafa.wav","no","f","f","a","no","a","fafa","Test","bilabial","NewWordTestStimuli",NA,NA,NA,NA,0,45,45,25,NA,NA,NA,NA,"No",1.754,47,FALSE,19,60.0182588812,NA,"American English","VSH_Exp2","2016_Mar_23_1907",NA
"Recordings/babi.wav","yes","b","b","a","yes","i","babi","Test","bilabial","NewWordTestStimuli",NA,NA,NA,NA,0,46,46,20,NA,NA,NA,NA,"Yes",0.987,47,FALSE,19,60.0182588812,NA,"American English","VSH_Exp2","2016_Mar_23_1907",NA
"Recordings/bisa.wav","yes","b","s","i","yes","a","bisa","Controls","bilabial","NoPatternControls",NA,NA,NA,NA,0,47,47,50,NA,NA,NA,NA,"No",1.47,47,FALSE,19,60.0182588812,NA,"American English","VSH_Exp2","2016_Mar_23_1907",NA
"Recordings/buta.wav","yes","b","t","u","yes","a","buta","Controls","bilabial","StopControls",NA,NA,NA,NA,0,48,48,30,NA,NA,NA,NA,"Yes",1.288,47,FALSE,19,60.0182588812,NA,"American English","VSH_Exp2","2016_Mar_23_1907",NA
"Recordings/piti.wav","no","p","t","i","yes","i","piti","Test","bilabial","OldTestStimuli",NA,NA,NA,NA,0,49,49,5,NA,NA,NA,NA,"Yes",0.971,47,FALSE,19,60.0182588812,NA,"American English","VSH_Exp2","2016_Mar_23_1907",NA
"Recordings/bidi.wav","yes","b","d","i","yes","i","bidi","Test","bilabial","NewConsTestStimuli",NA,NA,NA,NA,0,50,50,10,NA,NA,NA,NA,"Yes",0.619,47,FALSE,19,60.0182588812,NA,"American English","VSH_Exp2","2016_Mar_23_1907",NA
"Recordings/zavu.wav","yes","z","v","a","no","u","zavu","Test","alveolar","NewWordTestStimuli",NA,NA,NA,NA,0,51,51,21,NA,NA,NA,NA,"Yes",0.937,47,FALSE,19,60.0182588812,NA,"American English","VSH_Exp2","2016_Mar_23_1907",NA
"Recordings/zazi.wav","yes","z","z","a","no","i","zazi","Test","alveolar","OldTestStimuli",NA,NA,NA,NA,0,52,52,1,NA,NA,NA,NA,"Yes",0.804,47,FALSE,19,60.0182588812,NA,"American English","VSH_Exp2","2016_Mar_23_1907",NA
"Recordings/badu.wav","yes","b","d","a","yes","u","badu","Test","bilabial","NewConsTestStimuli",NA,NA,NA,NA,0,53,53,19,NA,NA,NA,NA,"Yes",1.82,47,FALSE,19,60.0182588812,NA,"American English","VSH_Exp2","2016_Mar_23_1907",NA
"Recordings/savi.wav","no","s","v","a","no","i","savi","Controls","alveolar","StopControls",NA,NA,NA,NA,0,54,54,39,NA,NA,NA,NA,"No",2.938,47,FALSE,19,60.0182588812,NA,"American English","VSH_Exp2","2016_Mar_23_1907",NA
"Recordings/zivi.wav","yes","z","v","i","no","i","zivi","Test","alveolar","OldTestStimuli",NA,NA,NA,NA,0,55,55,8,NA,NA,NA,NA,"Yes",0.818,47,FALSE,19,60.0182588812,NA,"American English","VSH_Exp2","2016_Mar_23_1907",NA
"Recordings/fufu.wav","no","f","f","u","no","u","fufu","Test","bilabial","OldTestStimuli",NA,NA,NA,NA,0,56,56,2,NA,NA,NA,NA,"Yes",1.254,47,FALSE,19,60.0182588812,NA,"American English","VSH_Exp2","2016_Mar_23_1907",NA
"Recordings/pufa.wav","no","p","f","u","yes","a","pufa","Controls","bilabial","VoicingControls",NA,NA,NA,NA,0,57,57,47,NA,NA,NA,NA,"Yes",1.037,47,FALSE,19,60.0182588812,NA,"American English","VSH_Exp2","2016_Mar_23_1907",NA
"Recordings/sasi.wav","no","s","s","a","no","i","sasi","Test","alveolar","NewWordTestStimuli",NA,NA,NA,NA,0,58,58,22,NA,NA,NA,NA,"Yes",0.838,47,FALSE,19,60.0182588812,NA,"American English","VSH_Exp2","2016_Mar_23_1907",NA
"Recordings/sati.wav","no","s","t","a","no","i","sati","Controls","alveolar","VoicingControls",NA,NA,NA,NA,0,59,59,43,NA,NA,NA,NA,"Yes",1.37,47,FALSE,19,60.0182588812,NA,"American English","VSH_Exp2","2016_Mar_23_1907",NA
