"SOUND","VOICING","SEGMENT","SEGMENT3","SEGMENT2","STOP","SEGMENT4","STIMULUS","GENERAL_TYPE","PLACE","TYPE","trials.thisRepN","trials.thisTrialN","trials.thisN","trials.thisIndex","trials_2.thisRepN","trials_2.thisTrialN","trials_2.thisN","trials_2.thisIndex","SpaceBar.keys","SpaceBar.rt","key_resp_2.keys","key_resp_2.rt","rating.response","rating.rt","participant","Gender","Age","frameRate","OtherLanguages","NativeLanguage","expName","date","X34"
NA,NA,NA,NA,NA,NA,NA,NA,NA,NA,NA,NA,NA,NA,NA,NA,NA,NA,NA,"space",2.45394396782,NA,NA,NA,NA,48,"M",19,59.7457074239,"French","American English","VSH_Exp2","2016_Mar_23_1907",NA
"Recordings/vivi.wav","yes","v","v","i","no","i","vivi","Training","bilabial","TrainingItems",0,0,0,96,NA,NA,NA,NA,NA,NA,NA,NA,NA,NA,48,"M",19,59.7457074239,"French","American English","VSH_Exp2","2016_Mar_23_1907",NA
"Recordings/puta.wav","no","p","t","u","yes","a","puta","Training","bilabial","TrainingItems",0,1,1,31,NA,NA,NA,NA,NA,NA,NA,NA,NA,NA,48,"M",19,59.7457074239,"French","American English","VSH_Exp2","2016_Mar_23_1907",NA
"Recordings/vizi.wav","yes","v","z","i","no","i","vizi","Training","bilabial","TrainingItems",0,2,2,2,NA,NA,NA,NA,NA,NA,NA,NA,NA,NA,48,"M",19,59.7457074239,"French","American English","VSH_Exp2","2016_Mar_23_1907",NA
"Recordings/vavu.wav","yes","v","v","a","no","u","vavu","Training","bilabial","TrainingItems",0,3,3,7,NA,NA,NA,NA,NA,NA,NA,NA,NA,NA,48,"M",19,59.7457074239,"French","American English","VSH_Exp2","2016_Mar_23_1907",NA
"Recordings/didi.wav","yes","d","d","i","yes","i","didi","Training","alveolar","TrainingItems",0,4,4,76,NA,NA,NA,NA,NA,NA,NA,NA,NA,NA,48,"M",19,59.7457074239,"French","American English","VSH_Exp2","2016_Mar_23_1907",NA
"Recordings/fufi.wav","no","f","f","u","no","i","fufi","Training","bilabial","TrainingItems",0,5,5,48,NA,NA,NA,NA,NA,NA,NA,NA,NA,NA,48,"M",19,59.7457074239,"French","American English","VSH_Exp2","2016_Mar_23_1907",NA
"Recordings/sasa.wav","no","s","s","a","no","a","sasa","Training","alveolar","TrainingItems",0,6,6,36,NA,NA,NA,NA,NA,NA,NA,NA,NA,NA,48,"M",19,59.7457074239,"French","American English","VSH_Exp2","2016_Mar_23_1907",NA
"Recordings/zizu.wav","yes","z","z","i","no","u","zizu","Training","alveolar","TrainingItems",0,7,7,65,NA,NA,NA,NA,NA,NA,NA,NA,NA,NA,48,"M",19,59.7457074239,"French","American English","VSH_Exp2","2016_Mar_23_1907",NA
"Recordings/sufu.wav","no","s","f","u","no","u","sufu","Training","alveolar","TrainingItems",0,8,8,14,NA,NA,NA,NA,NA,NA,NA,NA,NA,NA,48,"M",19,59.7457074239,"French","American English","VSH_Exp2","2016_Mar_23_1907",NA
"Recordings/titu.wav","no","t","t","i","yes","u","titu","Training","alveolar","TrainingItems",0,9,9,1,NA,NA,NA,NA,NA,NA,NA,NA,NA,NA,48,"M",19,59.7457074239,"French","American English","VSH_Exp2","2016_Mar_23_1907",NA
"Recordings/vivu.wav","yes","v","v","i","no","u","vivu","Training","bilabial","TrainingItems",0,10,10,79,NA,NA,NA,NA,NA,NA,NA,NA,NA,NA,48,"M",19,59.7457074239,"French","American English","VSH_Exp2","2016_Mar_23_1907",NA
"Recordings/tapi.wav","no","t","p","a","yes","i","tapi","Training","alveolar","TrainingItems",0,11,11,68,NA,NA,NA,NA,NA,NA,NA,NA,NA,NA,48,"M",19,59.7457074239,"French","American English","VSH_Exp2","2016_Mar_23_1907",NA
"Recordings/fifi.wav","no","f","f","i","no","i","fifi","Training","bilabial","TrainingItems",0,12,12,72,NA,NA,NA,NA,NA,NA,NA,NA,NA,NA,48,"M",19,59.7457074239,"French","American English","VSH_Exp2","2016_Mar_23_1907",NA
"Recordings/susu.wav","no","s","s","u","no","u","susu","Training","alveolar","TrainingItems",0,13,13,26,NA,NA,NA,NA,NA,NA,NA,NA,NA,NA,48,"M",19,59.7457074239,"French","American English","VSH_Exp2","2016_Mar_23_1907",NA
"Recordings/papu.wav","no","p","p","a","yes","u","papu","Training","bilabial","TrainingItems",0,14,14,94,NA,NA,NA,NA,NA,NA,NA,NA,NA,NA,48,"M",19,59.7457074239,"French","American English","VSH_Exp2","2016_Mar_23_1907",NA
"Recordings/zuza.wav","yes","z","z","u","no","a","zuza","Training","alveolar","TrainingItems",0,15,15,29,NA,NA,NA,NA,NA,NA,NA,NA,NA,NA,48,"M",19,59.7457074239,"French","American English","VSH_Exp2","2016_Mar_23_1907",NA
"Recordings/babu.wav","yes","b","b","a","yes","u","babu","Training","bilabial","TrainingItems",0,16,16,82,NA,NA,NA,NA,NA,NA,NA,NA,NA,NA,48,"M",19,59.7457074239,"French","American English","VSH_Exp2","2016_Mar_23_1907",NA
"Recordings/titi.wav","no","t","t","i","yes","i","titi","Training","alveolar","TrainingItems",0,17,17,3,NA,NA,NA,NA,NA,NA,NA,NA,NA,NA,48,"M",19,59.7457074239,"French","American English","VSH_Exp2","2016_Mar_23_1907",NA
"Recordings/safa.wav","no","s","f","a","no","a","safa","Training","alveolar","TrainingItems",0,18,18,42,NA,NA,NA,NA,NA,NA,NA,NA,NA,NA,48,"M",19,59.7457074239,"French","American English","VSH_Exp2","2016_Mar_23_1907",NA
"Recordings/tapa.wav","no","t","p","a","yes","a","tapa","Training","alveolar","TrainingItems",0,19,19,49,NA,NA,NA,NA,NA,NA,NA,NA,NA,NA,48,"M",19,59.7457074239,"French","American English","VSH_Exp2","2016_Mar_23_1907",NA
"Recordings/zizi.wav","yes","z","z","i","no","i","zizi","Training","alveolar","TrainingItems",0,20,20,28,NA,NA,NA,NA,NA,NA,NA,NA,NA,NA,48,"M",19,59.7457074239,"French","American English","VSH_Exp2","2016_Mar_23_1907",NA
"Recordings/fufu.wav","no","f","f","u","no","u","fufu","Training","bilabial","TrainingItems",0,21,21,17,NA,NA,NA,NA,NA,NA,NA,NA,NA,NA,48,"M",19,59.7457074239,"French","American English","VSH_Exp2","2016_Mar_23_1907",NA
"Recordings/pitu.wav","no","p","t","i","yes","u","pitu","Training","bilabial","TrainingItems",0,22,22,16,NA,NA,NA,NA,NA,NA,NA,NA,NA,NA,48,"M",19,59.7457074239,"French","American English","VSH_Exp2","2016_Mar_23_1907",NA
"Recordings/pati.wav","no","p","t","a","yes","i","pati","Training","bilabial","TrainingItems",0,23,23,9,NA,NA,NA,NA,NA,NA,NA,NA,NA,NA,48,"M",19,59.7457074239,"French","American English","VSH_Exp2","2016_Mar_23_1907",NA
"Recordings/sisu.wav","no","s","s","i","no","u","sisu","Training","alveolar","TrainingItems",0,24,24,69,NA,NA,NA,NA,NA,NA,NA,NA,NA,NA,48,"M",19,59.7457074239,"French","American English","VSH_Exp2","2016_Mar_23_1907",NA
"Recordings/fasa.wav","no","f","s","a","no","a","fasa","Training","bilabial","TrainingItems",0,25,25,53,NA,NA,NA,NA,NA,NA,NA,NA,NA,NA,48,"M",19,59.7457074239,"French","American English","VSH_Exp2","2016_Mar_23_1907",NA
"Recordings/tuti.wav","no","t","t","u","yes","i","tuti","Training","alveolar","TrainingItems",0,26,26,85,NA,NA,NA,NA,NA,NA,NA,NA,NA,NA,48,"M",19,59.7457074239,"French","American English","VSH_Exp2","2016_Mar_23_1907",NA
"Recordings/fisi.wav","no","f","s","i","no","i","fisi","Training","bilabial","TrainingItems",0,27,27,21,NA,NA,NA,NA,NA,NA,NA,NA,NA,NA,48,"M",19,59.7457074239,"French","American English","VSH_Exp2","2016_Mar_23_1907",NA
"Recordings/pupa.wav","no","p","p","u","yes","a","pupa","Training","bilabial","TrainingItems",0,28,28,63,NA,NA,NA,NA,NA,NA,NA,NA,NA,NA,48,"M",19,59.7457074239,"French","American English","VSH_Exp2","2016_Mar_23_1907",NA
"Recordings/sisi.wav","no","s","s","i","no","i","sisi","Training","alveolar","TrainingItems",0,29,29,78,NA,NA,NA,NA,NA,NA,NA,NA,NA,NA,48,"M",19,59.7457074239,"French","American English","VSH_Exp2","2016_Mar_23_1907",NA
"Recordings/zaza.wav","yes","z","z","a","no","a","zaza","Training","alveolar","TrainingItems",0,30,30,32,NA,NA,NA,NA,NA,NA,NA,NA,NA,NA,48,"M",19,59.7457074239,"French","American English","VSH_Exp2","2016_Mar_23_1907",NA
"Recordings/babi.wav","yes","b","b","a","yes","i","babi","Training","bilabial","TrainingItems",0,31,31,33,NA,NA,NA,NA,NA,NA,NA,NA,NA,NA,48,"M",19,59.7457074239,"French","American English","VSH_Exp2","2016_Mar_23_1907",NA
"Recordings/zuva.wav","yes","z","v","u","no","a","zuva","Training","alveolar","TrainingItems",0,32,32,89,NA,NA,NA,NA,NA,NA,NA,NA,NA,NA,48,"M",19,59.7457074239,"French","American English","VSH_Exp2","2016_Mar_23_1907",NA
"Recordings/fusu.wav","no","f","s","u","no","u","fusu","Training","bilabial","TrainingItems",0,33,33,25,NA,NA,NA,NA,NA,NA,NA,NA,NA,NA,48,"M",19,59.7457074239,"French","American English","VSH_Exp2","2016_Mar_23_1907",NA
"Recordings/zuzi.wav","yes","z","z","u","no","i","zuzi","Training","alveolar","TrainingItems",0,34,34,12,NA,NA,NA,NA,NA,NA,NA,NA,NA,NA,48,"M",19,59.7457074239,"French","American English","VSH_Exp2","2016_Mar_23_1907",NA
"Recordings/bibi.wav","yes","b","b","i","yes","i","bibi","Training","bilabial","TrainingItems",0,35,35,62,NA,NA,NA,NA,NA,NA,NA,NA,NA,NA,48,"M",19,59.7457074239,"French","American English","VSH_Exp2","2016_Mar_23_1907",NA
"Recordings/tata.wav","no","t","t","a","yes","a","tata","Training","alveolar","TrainingItems",0,36,36,83,NA,NA,NA,NA,NA,NA,NA,NA,NA,NA,48,"M",19,59.7457074239,"French","American English","VSH_Exp2","2016_Mar_23_1907",NA
"Recordings/sifu.wav","no","s","f","i","no","u","sifu","Training","alveolar","TrainingItems",0,37,37,27,NA,NA,NA,NA,NA,NA,NA,NA,NA,NA,48,"M",19,59.7457074239,"French","American English","VSH_Exp2","2016_Mar_23_1907",NA
"Recordings/viza.wav","yes","v","z","i","no","a","viza","Training","bilabial","TrainingItems",0,38,38,90,NA,NA,NA,NA,NA,NA,NA,NA,NA,NA,48,"M",19,59.7457074239,"French","American English","VSH_Exp2","2016_Mar_23_1907",NA
"Recordings/duda.wav","yes","d","d","u","yes","a","duda","Training","alveolar","TrainingItems",0,39,39,34,NA,NA,NA,NA,NA,NA,NA,NA,NA,NA,48,"M",19,59.7457074239,"French","American English","VSH_Exp2","2016_Mar_23_1907",NA
"Recordings/zavu.wav","yes","z","v","a","no","u","zavu","Training","alveolar","TrainingItems",0,40,40,84,NA,NA,NA,NA,NA,NA,NA,NA,NA,NA,48,"M",19,59.7457074239,"French","American English","VSH_Exp2","2016_Mar_23_1907",NA
"Recordings/safi.wav","no","s","f","a","no","i","safi","Training","alveolar","TrainingItems",0,41,41,43,NA,NA,NA,NA,NA,NA,NA,NA,NA,NA,48,"M",19,59.7457074239,"French","American English","VSH_Exp2","2016_Mar_23_1907",NA
"Recordings/bubu.wav","yes","b","b","u","yes","u","bubu","Training","bilabial","TrainingItems",0,42,42,45,NA,NA,NA,NA,NA,NA,NA,NA,NA,NA,48,"M",19,59.7457074239,"French","American English","VSH_Exp2","2016_Mar_23_1907",NA
"Recordings/fasi.wav","no","f","s","a","no","i","fasi","Training","bilabial","TrainingItems",0,43,43,38,NA,NA,NA,NA,NA,NA,NA,NA,NA,NA,48,"M",19,59.7457074239,"French","American English","VSH_Exp2","2016_Mar_23_1907",NA
"Recordings/tipu.wav","no","t","p","i","yes","u","tipu","Training","alveolar","TrainingItems",0,44,44,46,NA,NA,NA,NA,NA,NA,NA,NA,NA,NA,48,"M",19,59.7457074239,"French","American English","VSH_Exp2","2016_Mar_23_1907",NA
"Recordings/viva.wav","yes","v","v","i","no","a","viva","Training","bilabial","TrainingItems",0,45,45,88,NA,NA,NA,NA,NA,NA,NA,NA,NA,NA,48,"M",19,59.7457074239,"French","American English","VSH_Exp2","2016_Mar_23_1907",NA
"Recordings/susi.wav","no","s","s","u","no","i","susi","Training","alveolar","TrainingItems",0,46,46,40,NA,NA,NA,NA,NA,NA,NA,NA,NA,NA,48,"M",19,59.7457074239,"French","American English","VSH_Exp2","2016_Mar_23_1907",NA
"Recordings/dudi.wav","yes","d","d","u","yes","i","dudi","Training","alveolar","TrainingItems",0,47,47,41,NA,NA,NA,NA,NA,NA,NA,NA,NA,NA,48,"M",19,59.7457074239,"French","American English","VSH_Exp2","2016_Mar_23_1907",NA
"Recordings/dida.wav","yes","d","d","i","yes","a","dida","Training","alveolar","TrainingItems",0,48,48,56,NA,NA,NA,NA,NA,NA,NA,NA,NA,NA,48,"M",19,59.7457074239,"French","American English","VSH_Exp2","2016_Mar_23_1907",NA
"Recordings/fifu.wav","no","f","f","i","no","u","fifu","Training","bilabial","TrainingItems",0,49,49,80,NA,NA,NA,NA,NA,NA,NA,NA,NA,NA,48,"M",19,59.7457074239,"French","American English","VSH_Exp2","2016_Mar_23_1907",NA
"Recordings/sasu.wav","no","s","s","a","no","u","sasu","Training","alveolar","TrainingItems",0,50,50,18,NA,NA,NA,NA,NA,NA,NA,NA,NA,NA,48,"M",19,59.7457074239,"French","American English","VSH_Exp2","2016_Mar_23_1907",NA
"Recordings/vuza.wav","yes","v","z","u","no","a","vuza","Training","bilabial","TrainingItems",0,51,51,77,NA,NA,NA,NA,NA,NA,NA,NA,NA,NA,48,"M",19,59.7457074239,"French","American English","VSH_Exp2","2016_Mar_23_1907",NA
"Recordings/fifa.wav","no","f","f","i","no","a","fifa","Training","bilabial","TrainingItems",0,52,52,91,NA,NA,NA,NA,NA,NA,NA,NA,NA,NA,48,"M",19,59.7457074239,"French","American English","VSH_Exp2","2016_Mar_23_1907",NA
"Recordings/sufa.wav","no","s","f","u","no","a","sufa","Training","alveolar","TrainingItems",0,53,53,70,NA,NA,NA,NA,NA,NA,NA,NA,NA,NA,48,"M",19,59.7457074239,"French","American English","VSH_Exp2","2016_Mar_23_1907",NA
"Recordings/patu.wav","no","p","t","a","yes","u","patu","Training","bilabial","TrainingItems",0,54,54,67,NA,NA,NA,NA,NA,NA,NA,NA,NA,NA,48,"M",19,59.7457074239,"French","American English","VSH_Exp2","2016_Mar_23_1907",NA
"Recordings/zivu.wav","yes","z","v","i","no","u","zivu","Training","alveolar","TrainingItems",0,55,55,19,NA,NA,NA,NA,NA,NA,NA,NA,NA,NA,48,"M",19,59.7457074239,"French","American English","VSH_Exp2","2016_Mar_23_1907",NA
"Recordings/bubi.wav","yes","b","b","u","yes","i","bubi","Training","bilabial","TrainingItems",0,56,56,51,NA,NA,NA,NA,NA,NA,NA,NA,NA,NA,48,"M",19,59.7457074239,"French","American English","VSH_Exp2","2016_Mar_23_1907",NA
"Recordings/zuzu.wav","yes","z","z","u","no","u","zuzu","Training","alveolar","TrainingItems",0,57,57,10,NA,NA,NA,NA,NA,NA,NA,NA,NA,NA,48,"M",19,59.7457074239,"French","American English","VSH_Exp2","2016_Mar_23_1907",NA
"Recordings/sisa.wav","no","s","s","i","no","a","sisa","Training","alveolar","TrainingItems",0,58,58,6,NA,NA,NA,NA,NA,NA,NA,NA,NA,NA,48,"M",19,59.7457074239,"French","American English","VSH_Exp2","2016_Mar_23_1907",NA
"Recordings/tipa.wav","no","t","p","i","yes","a","tipa","Training","alveolar","TrainingItems",0,59,59,30,NA,NA,NA,NA,NA,NA,NA,NA,NA,NA,48,"M",19,59.7457074239,"French","American English","VSH_Exp2","2016_Mar_23_1907",NA
"Recordings/pipa.wav","no","p","p","i","yes","a","pipa","Training","bilabial","TrainingItems",0,60,60,8,NA,NA,NA,NA,NA,NA,NA,NA,NA,NA,48,"M",19,59.7457074239,"French","American English","VSH_Exp2","2016_Mar_23_1907",NA
"Recordings/puti.wav","no","p","t","u","yes","i","puti","Training","bilabial","TrainingItems",0,61,61,11,NA,NA,NA,NA,NA,NA,NA,NA,NA,NA,48,"M",19,59.7457074239,"French","American English","VSH_Exp2","2016_Mar_23_1907",NA
"Recordings/pata.wav","no","p","t","a","yes","a","pata","Training","bilabial","TrainingItems",0,62,62,92,NA,NA,NA,NA,NA,NA,NA,NA,NA,NA,48,"M",19,59.7457074239,"French","American English","VSH_Exp2","2016_Mar_23_1907",NA
"Recordings/pupi.wav","no","p","p","u","yes","i","pupi","Training","bilabial","TrainingItems",0,63,63,61,NA,NA,NA,NA,NA,NA,NA,NA,NA,NA,48,"M",19,59.7457074239,"French","American English","VSH_Exp2","2016_Mar_23_1907",NA
"Recordings/dadu.wav","yes","d","d","a","yes","u","dadu","Training","alveolar","TrainingItems",0,64,64,47,NA,NA,NA,NA,NA,NA,NA,NA,NA,NA,48,"M",19,59.7457074239,"French","American English","VSH_Exp2","2016_Mar_23_1907",NA
"Recordings/ziva.wav","yes","z","v","i","no","a","ziva","Training","alveolar","TrainingItems",0,65,65,20,NA,NA,NA,NA,NA,NA,NA,NA,NA,NA,48,"M",19,59.7457074239,"French","American English","VSH_Exp2","2016_Mar_23_1907",NA
"Recordings/zava.wav","yes","z","v","a","no","a","zava","Training","alveolar","TrainingItems",0,66,66,37,NA,NA,NA,NA,NA,NA,NA,NA,NA,NA,48,"M",19,59.7457074239,"French","American English","VSH_Exp2","2016_Mar_23_1907",NA
"Recordings/pita.wav","no","p","t","i","yes","a","pita","Training","bilabial","TrainingItems",0,67,67,52,NA,NA,NA,NA,NA,NA,NA,NA,NA,NA,48,"M",19,59.7457074239,"French","American English","VSH_Exp2","2016_Mar_23_1907",NA
"Recordings/vazu.wav","yes","v","z","a","no","u","vazu","Training","bilabial","TrainingItems",0,68,68,66,NA,NA,NA,NA,NA,NA,NA,NA,NA,NA,48,"M",19,59.7457074239,"French","American English","VSH_Exp2","2016_Mar_23_1907",NA
"Recordings/susa.wav","no","s","s","u","no","a","susa","Training","alveolar","TrainingItems",0,69,69,50,NA,NA,NA,NA,NA,NA,NA,NA,NA,NA,48,"M",19,59.7457074239,"French","American English","VSH_Exp2","2016_Mar_23_1907",NA
"Recordings/papa.wav","no","p","p","a","yes","a","papa","Training","bilabial","TrainingItems",0,70,70,95,NA,NA,NA,NA,NA,NA,NA,NA,NA,NA,48,"M",19,59.7457074239,"French","American English","VSH_Exp2","2016_Mar_23_1907",NA
"Recordings/sifi.wav","no","s","f","i","no","i","sifi","Training","alveolar","TrainingItems",0,71,71,4,NA,NA,NA,NA,NA,NA,NA,NA,NA,NA,48,"M",19,59.7457074239,"French","American English","VSH_Exp2","2016_Mar_23_1907",NA
"Recordings/vavi.wav","yes","v","v","a","no","i","vavi","Training","bilabial","TrainingItems",0,72,72,15,NA,NA,NA,NA,NA,NA,NA,NA,NA,NA,48,"M",19,59.7457074239,"French","American English","VSH_Exp2","2016_Mar_23_1907",NA
"Recordings/ziza.wav","yes","z","z","i","no","a","ziza","Training","alveolar","TrainingItems",0,73,73,98,NA,NA,NA,NA,NA,NA,NA,NA,NA,NA,48,"M",19,59.7457074239,"French","American English","VSH_Exp2","2016_Mar_23_1907",NA
"Recordings/tuta.wav","no","t","t","u","yes","a","tuta","Training","alveolar","TrainingItems",0,74,74,86,NA,NA,NA,NA,NA,NA,NA,NA,NA,NA,48,"M",19,59.7457074239,"French","American English","VSH_Exp2","2016_Mar_23_1907",NA
"Recordings/fafu.wav","no","f","f","a","no","u","fafu","Training","bilabial","TrainingItems",0,75,75,23,NA,NA,NA,NA,NA,NA,NA,NA,NA,NA,48,"M",19,59.7457074239,"French","American English","VSH_Exp2","2016_Mar_23_1907",NA
"Recordings/tatu.wav","no","t","t","a","yes","u","tatu","Training","alveolar","TrainingItems",0,76,76,13,NA,NA,NA,NA,NA,NA,NA,NA,NA,NA,48,"M",19,59.7457074239,"French","American English","VSH_Exp2","2016_Mar_23_1907",NA
"Recordings/tupi.wav","no","t","p","u","yes","i","tupi","Training","alveolar","TrainingItems",0,77,77,73,NA,NA,NA,NA,NA,NA,NA,NA,NA,NA,48,"M",19,59.7457074239,"French","American English","VSH_Exp2","2016_Mar_23_1907",NA
"Recordings/zavi.wav","yes","z","v","a","no","i","zavi","Training","alveolar","TrainingItems",0,78,78,87,NA,NA,NA,NA,NA,NA,NA,NA,NA,NA,48,"M",19,59.7457074239,"French","American English","VSH_Exp2","2016_Mar_23_1907",NA
"Recordings/vuva.wav","yes","v","v","u","no","a","vuva","Training","bilabial","TrainingItems",0,79,79,60,NA,NA,NA,NA,NA,NA,NA,NA,NA,NA,48,"M",19,59.7457074239,"French","American English","VSH_Exp2","2016_Mar_23_1907",NA
"Recordings/bibu.wav","yes","b","b","i","yes","u","bibu","Training","bilabial","TrainingItems",0,80,80,64,NA,NA,NA,NA,NA,NA,NA,NA,NA,NA,48,"M",19,59.7457074239,"French","American English","VSH_Exp2","2016_Mar_23_1907",NA
"Recordings/didu.wav","yes","d","d","i","yes","u","didu","Training","alveolar","TrainingItems",0,81,81,57,NA,NA,NA,NA,NA,NA,NA,NA,NA,NA,48,"M",19,59.7457074239,"French","American English","VSH_Exp2","2016_Mar_23_1907",NA
"Recordings/papi.wav","no","p","p","a","yes","i","papi","Training","bilabial","TrainingItems",0,82,82,93,NA,NA,NA,NA,NA,NA,NA,NA,NA,NA,48,"M",19,59.7457074239,"French","American English","VSH_Exp2","2016_Mar_23_1907",NA
"Recordings/biba.wav","yes","b","b","i","yes","a","biba","Training","bilabial","TrainingItems",0,83,83,24,NA,NA,NA,NA,NA,NA,NA,NA,NA,NA,48,"M",19,59.7457074239,"French","American English","VSH_Exp2","2016_Mar_23_1907",NA
"Recordings/pupu.wav","no","p","p","u","yes","u","pupu","Training","bilabial","TrainingItems",0,84,84,99,NA,NA,NA,NA,NA,NA,NA,NA,NA,NA,48,"M",19,59.7457074239,"French","American English","VSH_Exp2","2016_Mar_23_1907",NA
"Recordings/zivi.wav","yes","z","v","i","no","i","zivi","Training","alveolar","TrainingItems",0,85,85,22,NA,NA,NA,NA,NA,NA,NA,NA,NA,NA,48,"M",19,59.7457074239,"French","American English","VSH_Exp2","2016_Mar_23_1907",NA
"Recordings/vava.wav","yes","v","v","a","no","a","vava","Training","bilabial","TrainingItems",0,86,86,97,NA,NA,NA,NA,NA,NA,NA,NA,NA,NA,48,"M",19,59.7457074239,"French","American English","VSH_Exp2","2016_Mar_23_1907",NA
"Recordings/fafi.wav","no","f","f","a","no","i","fafi","Training","bilabial","TrainingItems",0,87,87,44,NA,NA,NA,NA,NA,NA,NA,NA,NA,NA,48,"M",19,59.7457074239,"French","American English","VSH_Exp2","2016_Mar_23_1907",NA
"Recordings/vizu.wav","yes","v","z","i","no","u","vizu","Training","bilabial","TrainingItems",0,88,88,59,NA,NA,NA,NA,NA,NA,NA,NA,NA,NA,48,"M",19,59.7457074239,"French","American English","VSH_Exp2","2016_Mar_23_1907",NA
"Recordings/tapu.wav","no","t","p","a","yes","u","tapu","Training","alveolar","TrainingItems",0,89,89,71,NA,NA,NA,NA,NA,NA,NA,NA,NA,NA,48,"M",19,59.7457074239,"French","American English","VSH_Exp2","2016_Mar_23_1907",NA
"Recordings/tupa.wav","no","t","p","u","yes","a","tupa","Training","alveolar","TrainingItems",0,90,90,74,NA,NA,NA,NA,NA,NA,NA,NA,NA,NA,48,"M",19,59.7457074239,"French","American English","VSH_Exp2","2016_Mar_23_1907",NA
"Recordings/fusa.wav","no","f","s","u","no","a","fusa","Training","bilabial","TrainingItems",0,91,91,35,NA,NA,NA,NA,NA,NA,NA,NA,NA,NA,48,"M",19,59.7457074239,"French","American English","VSH_Exp2","2016_Mar_23_1907",NA
"Recordings/dadi.wav","yes","d","d","a","yes","i","dadi","Training","alveolar","TrainingItems",0,92,92,39,NA,NA,NA,NA,NA,NA,NA,NA,NA,NA,48,"M",19,59.7457074239,"French","American English","VSH_Exp2","2016_Mar_23_1907",NA
"Recordings/zuvi.wav","yes","z","v","u","no","i","zuvi","Training","alveolar","TrainingItems",0,93,93,0,NA,NA,NA,NA,NA,NA,NA,NA,NA,NA,48,"M",19,59.7457074239,"French","American English","VSH_Exp2","2016_Mar_23_1907",NA
"Recordings/tati.wav","no","t","t","a","yes","i","tati","Training","alveolar","TrainingItems",0,94,94,54,NA,NA,NA,NA,NA,NA,NA,NA,NA,NA,48,"M",19,59.7457074239,"French","American English","VSH_Exp2","2016_Mar_23_1907",NA
"Recordings/vazi.wav","yes","v","z","a","no","i","vazi","Training","bilabial","TrainingItems",0,95,95,5,NA,NA,NA,NA,NA,NA,NA,NA,NA,NA,48,"M",19,59.7457074239,"French","American English","VSH_Exp2","2016_Mar_23_1907",NA
"Recordings/zazi.wav","yes","z","z","a","no","i","zazi","Training","alveolar","TrainingItems",0,96,96,58,NA,NA,NA,NA,NA,NA,NA,NA,NA,NA,48,"M",19,59.7457074239,"French","American English","VSH_Exp2","2016_Mar_23_1907",NA
"Recordings/tipi.wav","no","t","p","i","yes","i","tipi","Training","alveolar","TrainingItems",0,97,97,75,NA,NA,NA,NA,NA,NA,NA,NA,NA,NA,48,"M",19,59.7457074239,"French","American English","VSH_Exp2","2016_Mar_23_1907",NA
"Recordings/sufi.wav","no","s","f","u","no","i","sufi","Training","alveolar","TrainingItems",0,98,98,81,NA,NA,NA,NA,NA,NA,NA,NA,NA,NA,48,"M",19,59.7457074239,"French","American English","VSH_Exp2","2016_Mar_23_1907",NA
"Recordings/tupu.wav","no","t","p","u","yes","u","tupu","Training","alveolar","TrainingItems",0,99,99,55,NA,NA,NA,NA,NA,NA,NA,NA,NA,NA,48,"M",19,59.7457074239,"French","American English","VSH_Exp2","2016_Mar_23_1907",NA
"Recordings/puti.wav","no","p","t","u","yes","i","puti","Training","bilabial","TrainingItems",1,0,100,11,NA,NA,NA,NA,NA,NA,NA,NA,NA,NA,48,"M",19,59.7457074239,"French","American English","VSH_Exp2","2016_Mar_23_1907",NA
"Recordings/bibi.wav","yes","b","b","i","yes","i","bibi","Training","bilabial","TrainingItems",1,1,101,62,NA,NA,NA,NA,NA,NA,NA,NA,NA,NA,48,"M",19,59.7457074239,"French","American English","VSH_Exp2","2016_Mar_23_1907",NA
"Recordings/zuza.wav","yes","z","z","u","no","a","zuza","Training","alveolar","TrainingItems",1,2,102,29,NA,NA,NA,NA,NA,NA,NA,NA,NA,NA,48,"M",19,59.7457074239,"French","American English","VSH_Exp2","2016_Mar_23_1907",NA
"Recordings/fasa.wav","no","f","s","a","no","a","fasa","Training","bilabial","TrainingItems",1,3,103,53,NA,NA,NA,NA,NA,NA,NA,NA,NA,NA,48,"M",19,59.7457074239,"French","American English","VSH_Exp2","2016_Mar_23_1907",NA
"Recordings/vivu.wav","yes","v","v","i","no","u","vivu","Training","bilabial","TrainingItems",1,4,104,79,NA,NA,NA,NA,NA,NA,NA,NA,NA,NA,48,"M",19,59.7457074239,"French","American English","VSH_Exp2","2016_Mar_23_1907",NA
"Recordings/zava.wav","yes","z","v","a","no","a","zava","Training","alveolar","TrainingItems",1,5,105,37,NA,NA,NA,NA,NA,NA,NA,NA,NA,NA,48,"M",19,59.7457074239,"French","American English","VSH_Exp2","2016_Mar_23_1907",NA
"Recordings/tapi.wav","no","t","p","a","yes","i","tapi","Training","alveolar","TrainingItems",1,6,106,68,NA,NA,NA,NA,NA,NA,NA,NA,NA,NA,48,"M",19,59.7457074239,"French","American English","VSH_Exp2","2016_Mar_23_1907",NA
"Recordings/titu.wav","no","t","t","i","yes","u","titu","Training","alveolar","TrainingItems",1,7,107,1,NA,NA,NA,NA,NA,NA,NA,NA,NA,NA,48,"M",19,59.7457074239,"French","American English","VSH_Exp2","2016_Mar_23_1907",NA
"Recordings/ziza.wav","yes","z","z","i","no","a","ziza","Training","alveolar","TrainingItems",1,8,108,98,NA,NA,NA,NA,NA,NA,NA,NA,NA,NA,48,"M",19,59.7457074239,"French","American English","VSH_Exp2","2016_Mar_23_1907",NA
"Recordings/pitu.wav","no","p","t","i","yes","u","pitu","Training","bilabial","TrainingItems",1,9,109,16,NA,NA,NA,NA,NA,NA,NA,NA,NA,NA,48,"M",19,59.7457074239,"French","American English","VSH_Exp2","2016_Mar_23_1907",NA
"Recordings/fusu.wav","no","f","s","u","no","u","fusu","Training","bilabial","TrainingItems",1,10,110,25,NA,NA,NA,NA,NA,NA,NA,NA,NA,NA,48,"M",19,59.7457074239,"French","American English","VSH_Exp2","2016_Mar_23_1907",NA
"Recordings/didi.wav","yes","d","d","i","yes","i","didi","Training","alveolar","TrainingItems",1,11,111,76,NA,NA,NA,NA,NA,NA,NA,NA,NA,NA,48,"M",19,59.7457074239,"French","American English","VSH_Exp2","2016_Mar_23_1907",NA
"Recordings/vavu.wav","yes","v","v","a","no","u","vavu","Training","bilabial","TrainingItems",1,12,112,7,NA,NA,NA,NA,NA,NA,NA,NA,NA,NA,48,"M",19,59.7457074239,"French","American English","VSH_Exp2","2016_Mar_23_1907",NA
"Recordings/sisu.wav","no","s","s","i","no","u","sisu","Training","alveolar","TrainingItems",1,13,113,69,NA,NA,NA,NA,NA,NA,NA,NA,NA,NA,48,"M",19,59.7457074239,"French","American English","VSH_Exp2","2016_Mar_23_1907",NA
"Recordings/fusa.wav","no","f","s","u","no","a","fusa","Training","bilabial","TrainingItems",1,14,114,35,NA,NA,NA,NA,NA,NA,NA,NA,NA,NA,48,"M",19,59.7457074239,"French","American English","VSH_Exp2","2016_Mar_23_1907",NA
"Recordings/susi.wav","no","s","s","u","no","i","susi","Training","alveolar","TrainingItems",1,15,115,40,NA,NA,NA,NA,NA,NA,NA,NA,NA,NA,48,"M",19,59.7457074239,"French","American English","VSH_Exp2","2016_Mar_23_1907",NA
"Recordings/dadi.wav","yes","d","d","a","yes","i","dadi","Training","alveolar","TrainingItems",1,16,116,39,NA,NA,NA,NA,NA,NA,NA,NA,NA,NA,48,"M",19,59.7457074239,"French","American English","VSH_Exp2","2016_Mar_23_1907",NA
"Recordings/zivu.wav","yes","z","v","i","no","u","zivu","Training","alveolar","TrainingItems",1,17,117,19,NA,NA,NA,NA,NA,NA,NA,NA,NA,NA,48,"M",19,59.7457074239,"French","American English","VSH_Exp2","2016_Mar_23_1907",NA
"Recordings/pipa.wav","no","p","p","i","yes","a","pipa","Training","bilabial","TrainingItems",1,18,118,8,NA,NA,NA,NA,NA,NA,NA,NA,NA,NA,48,"M",19,59.7457074239,"French","American English","VSH_Exp2","2016_Mar_23_1907",NA
"Recordings/tuti.wav","no","t","t","u","yes","i","tuti","Training","alveolar","TrainingItems",1,19,119,85,NA,NA,NA,NA,NA,NA,NA,NA,NA,NA,48,"M",19,59.7457074239,"French","American English","VSH_Exp2","2016_Mar_23_1907",NA
"Recordings/tati.wav","no","t","t","a","yes","i","tati","Training","alveolar","TrainingItems",1,20,120,54,NA,NA,NA,NA,NA,NA,NA,NA,NA,NA,48,"M",19,59.7457074239,"French","American English","VSH_Exp2","2016_Mar_23_1907",NA
"Recordings/tipu.wav","no","t","p","i","yes","u","tipu","Training","alveolar","TrainingItems",1,21,121,46,NA,NA,NA,NA,NA,NA,NA,NA,NA,NA,48,"M",19,59.7457074239,"French","American English","VSH_Exp2","2016_Mar_23_1907",NA
"Recordings/sufu.wav","no","s","f","u","no","u","sufu","Training","alveolar","TrainingItems",1,22,122,14,NA,NA,NA,NA,NA,NA,NA,NA,NA,NA,48,"M",19,59.7457074239,"French","American English","VSH_Exp2","2016_Mar_23_1907",NA
"Recordings/pita.wav","no","p","t","i","yes","a","pita","Training","bilabial","TrainingItems",1,23,123,52,NA,NA,NA,NA,NA,NA,NA,NA,NA,NA,48,"M",19,59.7457074239,"French","American English","VSH_Exp2","2016_Mar_23_1907",NA
"Recordings/tupa.wav","no","t","p","u","yes","a","tupa","Training","alveolar","TrainingItems",1,24,124,74,NA,NA,NA,NA,NA,NA,NA,NA,NA,NA,48,"M",19,59.7457074239,"French","American English","VSH_Exp2","2016_Mar_23_1907",NA
"Recordings/pati.wav","no","p","t","a","yes","i","pati","Training","bilabial","TrainingItems",1,25,125,9,NA,NA,NA,NA,NA,NA,NA,NA,NA,NA,48,"M",19,59.7457074239,"French","American English","VSH_Exp2","2016_Mar_23_1907",NA
"Recordings/dudi.wav","yes","d","d","u","yes","i","dudi","Training","alveolar","TrainingItems",1,26,126,41,NA,NA,NA,NA,NA,NA,NA,NA,NA,NA,48,"M",19,59.7457074239,"French","American English","VSH_Exp2","2016_Mar_23_1907",NA
"Recordings/vavi.wav","yes","v","v","a","no","i","vavi","Training","bilabial","TrainingItems",1,27,127,15,NA,NA,NA,NA,NA,NA,NA,NA,NA,NA,48,"M",19,59.7457074239,"French","American English","VSH_Exp2","2016_Mar_23_1907",NA
"Recordings/bubu.wav","yes","b","b","u","yes","u","bubu","Training","bilabial","TrainingItems",1,28,128,45,NA,NA,NA,NA,NA,NA,NA,NA,NA,NA,48,"M",19,59.7457074239,"French","American English","VSH_Exp2","2016_Mar_23_1907",NA
"Recordings/vivi.wav","yes","v","v","i","no","i","vivi","Training","bilabial","TrainingItems",1,29,129,96,NA,NA,NA,NA,NA,NA,NA,NA,NA,NA,48,"M",19,59.7457074239,"French","American English","VSH_Exp2","2016_Mar_23_1907",NA
"Recordings/sufi.wav","no","s","f","u","no","i","sufi","Training","alveolar","TrainingItems",1,30,130,81,NA,NA,NA,NA,NA,NA,NA,NA,NA,NA,48,"M",19,59.7457074239,"French","American English","VSH_Exp2","2016_Mar_23_1907",NA
"Recordings/tupu.wav","no","t","p","u","yes","u","tupu","Training","alveolar","TrainingItems",1,31,131,55,NA,NA,NA,NA,NA,NA,NA,NA,NA,NA,48,"M",19,59.7457074239,"French","American English","VSH_Exp2","2016_Mar_23_1907",NA
"Recordings/safa.wav","no","s","f","a","no","a","safa","Training","alveolar","TrainingItems",1,32,132,42,NA,NA,NA,NA,NA,NA,NA,NA,NA,NA,48,"M",19,59.7457074239,"French","American English","VSH_Exp2","2016_Mar_23_1907",NA
"Recordings/vazu.wav","yes","v","z","a","no","u","vazu","Training","bilabial","TrainingItems",1,33,133,66,NA,NA,NA,NA,NA,NA,NA,NA,NA,NA,48,"M",19,59.7457074239,"French","American English","VSH_Exp2","2016_Mar_23_1907",NA
"Recordings/didu.wav","yes","d","d","i","yes","u","didu","Training","alveolar","TrainingItems",1,34,134,57,NA,NA,NA,NA,NA,NA,NA,NA,NA,NA,48,"M",19,59.7457074239,"French","American English","VSH_Exp2","2016_Mar_23_1907",NA
"Recordings/papi.wav","no","p","p","a","yes","i","papi","Training","bilabial","TrainingItems",1,35,135,93,NA,NA,NA,NA,NA,NA,NA,NA,NA,NA,48,"M",19,59.7457074239,"French","American English","VSH_Exp2","2016_Mar_23_1907",NA
"Recordings/zaza.wav","yes","z","z","a","no","a","zaza","Training","alveolar","TrainingItems",1,36,136,32,NA,NA,NA,NA,NA,NA,NA,NA,NA,NA,48,"M",19,59.7457074239,"French","American English","VSH_Exp2","2016_Mar_23_1907",NA
"Recordings/vizi.wav","yes","v","z","i","no","i","vizi","Training","bilabial","TrainingItems",1,37,137,2,NA,NA,NA,NA,NA,NA,NA,NA,NA,NA,48,"M",19,59.7457074239,"French","American English","VSH_Exp2","2016_Mar_23_1907",NA
"Recordings/vazi.wav","yes","v","z","a","no","i","vazi","Training","bilabial","TrainingItems",1,38,138,5,NA,NA,NA,NA,NA,NA,NA,NA,NA,NA,48,"M",19,59.7457074239,"French","American English","VSH_Exp2","2016_Mar_23_1907",NA
"Recordings/sasu.wav","no","s","s","a","no","u","sasu","Training","alveolar","TrainingItems",1,39,139,18,NA,NA,NA,NA,NA,NA,NA,NA,NA,NA,48,"M",19,59.7457074239,"French","American English","VSH_Exp2","2016_Mar_23_1907",NA
"Recordings/patu.wav","no","p","t","a","yes","u","patu","Training","bilabial","TrainingItems",1,40,140,67,NA,NA,NA,NA,NA,NA,NA,NA,NA,NA,48,"M",19,59.7457074239,"French","American English","VSH_Exp2","2016_Mar_23_1907",NA
"Recordings/fafu.wav","no","f","f","a","no","u","fafu","Training","bilabial","TrainingItems",1,41,141,23,NA,NA,NA,NA,NA,NA,NA,NA,NA,NA,48,"M",19,59.7457074239,"French","American English","VSH_Exp2","2016_Mar_23_1907",NA
"Recordings/tipi.wav","no","t","p","i","yes","i","tipi","Training","alveolar","TrainingItems",1,42,142,75,NA,NA,NA,NA,NA,NA,NA,NA,NA,NA,48,"M",19,59.7457074239,"French","American English","VSH_Exp2","2016_Mar_23_1907",NA
"Recordings/sasa.wav","no","s","s","a","no","a","sasa","Training","alveolar","TrainingItems",1,43,143,36,NA,NA,NA,NA,NA,NA,NA,NA,NA,NA,48,"M",19,59.7457074239,"French","American English","VSH_Exp2","2016_Mar_23_1907",NA
"Recordings/sisi.wav","no","s","s","i","no","i","sisi","Training","alveolar","TrainingItems",1,44,144,78,NA,NA,NA,NA,NA,NA,NA,NA,NA,NA,48,"M",19,59.7457074239,"French","American English","VSH_Exp2","2016_Mar_23_1907",NA
"Recordings/sisa.wav","no","s","s","i","no","a","sisa","Training","alveolar","TrainingItems",1,45,145,6,NA,NA,NA,NA,NA,NA,NA,NA,NA,NA,48,"M",19,59.7457074239,"French","American English","VSH_Exp2","2016_Mar_23_1907",NA
"Recordings/babu.wav","yes","b","b","a","yes","u","babu","Training","bilabial","TrainingItems",1,46,146,82,NA,NA,NA,NA,NA,NA,NA,NA,NA,NA,48,"M",19,59.7457074239,"French","American English","VSH_Exp2","2016_Mar_23_1907",NA
"Recordings/fasi.wav","no","f","s","a","no","i","fasi","Training","bilabial","TrainingItems",1,47,147,38,NA,NA,NA,NA,NA,NA,NA,NA,NA,NA,48,"M",19,59.7457074239,"French","American English","VSH_Exp2","2016_Mar_23_1907",NA
"Recordings/vuva.wav","yes","v","v","u","no","a","vuva","Training","bilabial","TrainingItems",1,48,148,60,NA,NA,NA,NA,NA,NA,NA,NA,NA,NA,48,"M",19,59.7457074239,"French","American English","VSH_Exp2","2016_Mar_23_1907",NA
"Recordings/fufu.wav","no","f","f","u","no","u","fufu","Training","bilabial","TrainingItems",1,49,149,17,NA,NA,NA,NA,NA,NA,NA,NA,NA,NA,48,"M",19,59.7457074239,"French","American English","VSH_Exp2","2016_Mar_23_1907",NA
"Recordings/tata.wav","no","t","t","a","yes","a","tata","Training","alveolar","TrainingItems",1,50,150,83,NA,NA,NA,NA,NA,NA,NA,NA,NA,NA,48,"M",19,59.7457074239,"French","American English","VSH_Exp2","2016_Mar_23_1907",NA
"Recordings/viza.wav","yes","v","z","i","no","a","viza","Training","bilabial","TrainingItems",1,51,151,90,NA,NA,NA,NA,NA,NA,NA,NA,NA,NA,48,"M",19,59.7457074239,"French","American English","VSH_Exp2","2016_Mar_23_1907",NA
"Recordings/viva.wav","yes","v","v","i","no","a","viva","Training","bilabial","TrainingItems",1,52,152,88,NA,NA,NA,NA,NA,NA,NA,NA,NA,NA,48,"M",19,59.7457074239,"French","American English","VSH_Exp2","2016_Mar_23_1907",NA
"Recordings/titi.wav","no","t","t","i","yes","i","titi","Training","alveolar","TrainingItems",1,53,153,3,NA,NA,NA,NA,NA,NA,NA,NA,NA,NA,48,"M",19,59.7457074239,"French","American English","VSH_Exp2","2016_Mar_23_1907",NA
"Recordings/babi.wav","yes","b","b","a","yes","i","babi","Training","bilabial","TrainingItems",1,54,154,33,NA,NA,NA,NA,NA,NA,NA,NA,NA,NA,48,"M",19,59.7457074239,"French","American English","VSH_Exp2","2016_Mar_23_1907",NA
"Recordings/vizu.wav","yes","v","z","i","no","u","vizu","Training","bilabial","TrainingItems",1,55,155,59,NA,NA,NA,NA,NA,NA,NA,NA,NA,NA,48,"M",19,59.7457074239,"French","American English","VSH_Exp2","2016_Mar_23_1907",NA
"Recordings/pupa.wav","no","p","p","u","yes","a","pupa","Training","bilabial","TrainingItems",1,56,156,63,NA,NA,NA,NA,NA,NA,NA,NA,NA,NA,48,"M",19,59.7457074239,"French","American English","VSH_Exp2","2016_Mar_23_1907",NA
"Recordings/bubi.wav","yes","b","b","u","yes","i","bubi","Training","bilabial","TrainingItems",1,57,157,51,NA,NA,NA,NA,NA,NA,NA,NA,NA,NA,48,"M",19,59.7457074239,"French","American English","VSH_Exp2","2016_Mar_23_1907",NA
"Recordings/papa.wav","no","p","p","a","yes","a","papa","Training","bilabial","TrainingItems",1,58,158,95,NA,NA,NA,NA,NA,NA,NA,NA,NA,NA,48,"M",19,59.7457074239,"French","American English","VSH_Exp2","2016_Mar_23_1907",NA
"Recordings/zazi.wav","yes","z","z","a","no","i","zazi","Training","alveolar","TrainingItems",1,59,159,58,NA,NA,NA,NA,NA,NA,NA,NA,NA,NA,48,"M",19,59.7457074239,"French","American English","VSH_Exp2","2016_Mar_23_1907",NA
"Recordings/papu.wav","no","p","p","a","yes","u","papu","Training","bilabial","TrainingItems",1,60,160,94,NA,NA,NA,NA,NA,NA,NA,NA,NA,NA,48,"M",19,59.7457074239,"French","American English","VSH_Exp2","2016_Mar_23_1907",NA
"Recordings/fifi.wav","no","f","f","i","no","i","fifi","Training","bilabial","TrainingItems",1,61,161,72,NA,NA,NA,NA,NA,NA,NA,NA,NA,NA,48,"M",19,59.7457074239,"French","American English","VSH_Exp2","2016_Mar_23_1907",NA
"Recordings/puta.wav","no","p","t","u","yes","a","puta","Training","bilabial","TrainingItems",1,62,162,31,NA,NA,NA,NA,NA,NA,NA,NA,NA,NA,48,"M",19,59.7457074239,"French","American English","VSH_Exp2","2016_Mar_23_1907",NA
"Recordings/fisi.wav","no","f","s","i","no","i","fisi","Training","bilabial","TrainingItems",1,63,163,21,NA,NA,NA,NA,NA,NA,NA,NA,NA,NA,48,"M",19,59.7457074239,"French","American English","VSH_Exp2","2016_Mar_23_1907",NA
"Recordings/duda.wav","yes","d","d","u","yes","a","duda","Training","alveolar","TrainingItems",1,64,164,34,NA,NA,NA,NA,NA,NA,NA,NA,NA,NA,48,"M",19,59.7457074239,"French","American English","VSH_Exp2","2016_Mar_23_1907",NA
"Recordings/dida.wav","yes","d","d","i","yes","a","dida","Training","alveolar","TrainingItems",1,65,165,56,NA,NA,NA,NA,NA,NA,NA,NA,NA,NA,48,"M",19,59.7457074239,"French","American English","VSH_Exp2","2016_Mar_23_1907",NA
"Recordings/susu.wav","no","s","s","u","no","u","susu","Training","alveolar","TrainingItems",1,66,166,26,NA,NA,NA,NA,NA,NA,NA,NA,NA,NA,48,"M",19,59.7457074239,"French","American English","VSH_Exp2","2016_Mar_23_1907",NA
"Recordings/vuza.wav","yes","v","z","u","no","a","vuza","Training","bilabial","TrainingItems",1,67,167,77,NA,NA,NA,NA,NA,NA,NA,NA,NA,NA,48,"M",19,59.7457074239,"French","American English","VSH_Exp2","2016_Mar_23_1907",NA
"Recordings/ziva.wav","yes","z","v","i","no","a","ziva","Training","alveolar","TrainingItems",1,68,168,20,NA,NA,NA,NA,NA,NA,NA,NA,NA,NA,48,"M",19,59.7457074239,"French","American English","VSH_Exp2","2016_Mar_23_1907",NA
"Recordings/fafi.wav","no","f","f","a","no","i","fafi","Training","bilabial","TrainingItems",1,69,169,44,NA,NA,NA,NA,NA,NA,NA,NA,NA,NA,48,"M",19,59.7457074239,"French","American English","VSH_Exp2","2016_Mar_23_1907",NA
"Recordings/tapa.wav","no","t","p","a","yes","a","tapa","Training","alveolar","TrainingItems",1,70,170,49,NA,NA,NA,NA,NA,NA,NA,NA,NA,NA,48,"M",19,59.7457074239,"French","American English","VSH_Exp2","2016_Mar_23_1907",NA
"Recordings/pupi.wav","no","p","p","u","yes","i","pupi","Training","bilabial","TrainingItems",1,71,171,61,NA,NA,NA,NA,NA,NA,NA,NA,NA,NA,48,"M",19,59.7457074239,"French","American English","VSH_Exp2","2016_Mar_23_1907",NA
"Recordings/zavi.wav","yes","z","v","a","no","i","zavi","Training","alveolar","TrainingItems",1,72,172,87,NA,NA,NA,NA,NA,NA,NA,NA,NA,NA,48,"M",19,59.7457074239,"French","American English","VSH_Exp2","2016_Mar_23_1907",NA
"Recordings/biba.wav","yes","b","b","i","yes","a","biba","Training","bilabial","TrainingItems",1,73,173,24,NA,NA,NA,NA,NA,NA,NA,NA,NA,NA,48,"M",19,59.7457074239,"French","American English","VSH_Exp2","2016_Mar_23_1907",NA
"Recordings/safi.wav","no","s","f","a","no","i","safi","Training","alveolar","TrainingItems",1,74,174,43,NA,NA,NA,NA,NA,NA,NA,NA,NA,NA,48,"M",19,59.7457074239,"French","American English","VSH_Exp2","2016_Mar_23_1907",NA
"Recordings/tupi.wav","no","t","p","u","yes","i","tupi","Training","alveolar","TrainingItems",1,75,175,73,NA,NA,NA,NA,NA,NA,NA,NA,NA,NA,48,"M",19,59.7457074239,"French","American English","VSH_Exp2","2016_Mar_23_1907",NA
"Recordings/zuzu.wav","yes","z","z","u","no","u","zuzu","Training","alveolar","TrainingItems",1,76,176,10,NA,NA,NA,NA,NA,NA,NA,NA,NA,NA,48,"M",19,59.7457074239,"French","American English","VSH_Exp2","2016_Mar_23_1907",NA
"Recordings/pupu.wav","no","p","p","u","yes","u","pupu","Training","bilabial","TrainingItems",1,77,177,99,NA,NA,NA,NA,NA,NA,NA,NA,NA,NA,48,"M",19,59.7457074239,"French","American English","VSH_Exp2","2016_Mar_23_1907",NA
"Recordings/pata.wav","no","p","t","a","yes","a","pata","Training","bilabial","TrainingItems",1,78,178,92,NA,NA,NA,NA,NA,NA,NA,NA,NA,NA,48,"M",19,59.7457074239,"French","American English","VSH_Exp2","2016_Mar_23_1907",NA
"Recordings/tatu.wav","no","t","t","a","yes","u","tatu","Training","alveolar","TrainingItems",1,79,179,13,NA,NA,NA,NA,NA,NA,NA,NA,NA,NA,48,"M",19,59.7457074239,"French","American English","VSH_Exp2","2016_Mar_23_1907",NA
"Recordings/susa.wav","no","s","s","u","no","a","susa","Training","alveolar","TrainingItems",1,80,180,50,NA,NA,NA,NA,NA,NA,NA,NA,NA,NA,48,"M",19,59.7457074239,"French","American English","VSH_Exp2","2016_Mar_23_1907",NA
"Recordings/tuta.wav","no","t","t","u","yes","a","tuta","Training","alveolar","TrainingItems",1,81,181,86,NA,NA,NA,NA,NA,NA,NA,NA,NA,NA,48,"M",19,59.7457074239,"French","American English","VSH_Exp2","2016_Mar_23_1907",NA
"Recordings/zavu.wav","yes","z","v","a","no","u","zavu","Training","alveolar","TrainingItems",1,82,182,84,NA,NA,NA,NA,NA,NA,NA,NA,NA,NA,48,"M",19,59.7457074239,"French","American English","VSH_Exp2","2016_Mar_23_1907",NA
"Recordings/bibu.wav","yes","b","b","i","yes","u","bibu","Training","bilabial","TrainingItems",1,83,183,64,NA,NA,NA,NA,NA,NA,NA,NA,NA,NA,48,"M",19,59.7457074239,"French","American English","VSH_Exp2","2016_Mar_23_1907",NA
"Recordings/zuvi.wav","yes","z","v","u","no","i","zuvi","Training","alveolar","TrainingItems",1,84,184,0,NA,NA,NA,NA,NA,NA,NA,NA,NA,NA,48,"M",19,59.7457074239,"French","American English","VSH_Exp2","2016_Mar_23_1907",NA
"Recordings/zivi.wav","yes","z","v","i","no","i","zivi","Training","alveolar","TrainingItems",1,85,185,22,NA,NA,NA,NA,NA,NA,NA,NA,NA,NA,48,"M",19,59.7457074239,"French","American English","VSH_Exp2","2016_Mar_23_1907",NA
"Recordings/sifi.wav","no","s","f","i","no","i","sifi","Training","alveolar","TrainingItems",1,86,186,4,NA,NA,NA,NA,NA,NA,NA,NA,NA,NA,48,"M",19,59.7457074239,"French","American English","VSH_Exp2","2016_Mar_23_1907",NA
"Recordings/tapu.wav","no","t","p","a","yes","u","tapu","Training","alveolar","TrainingItems",1,87,187,71,NA,NA,NA,NA,NA,NA,NA,NA,NA,NA,48,"M",19,59.7457074239,"French","American English","VSH_Exp2","2016_Mar_23_1907",NA
"Recordings/fufi.wav","no","f","f","u","no","i","fufi","Training","bilabial","TrainingItems",1,88,188,48,NA,NA,NA,NA,NA,NA,NA,NA,NA,NA,48,"M",19,59.7457074239,"French","American English","VSH_Exp2","2016_Mar_23_1907",NA
"Recordings/zizi.wav","yes","z","z","i","no","i","zizi","Training","alveolar","TrainingItems",1,89,189,28,NA,NA,NA,NA,NA,NA,NA,NA,NA,NA,48,"M",19,59.7457074239,"French","American English","VSH_Exp2","2016_Mar_23_1907",NA
"Recordings/sifu.wav","no","s","f","i","no","u","sifu","Training","alveolar","TrainingItems",1,90,190,27,NA,NA,NA,NA,NA,NA,NA,NA,NA,NA,48,"M",19,59.7457074239,"French","American English","VSH_Exp2","2016_Mar_23_1907",NA
"Recordings/sufa.wav","no","s","f","u","no","a","sufa","Training","alveolar","TrainingItems",1,91,191,70,NA,NA,NA,NA,NA,NA,NA,NA,NA,NA,48,"M",19,59.7457074239,"French","American English","VSH_Exp2","2016_Mar_23_1907",NA
"Recordings/zuzi.wav","yes","z","z","u","no","i","zuzi","Training","alveolar","TrainingItems",1,92,192,12,NA,NA,NA,NA,NA,NA,NA,NA,NA,NA,48,"M",19,59.7457074239,"French","American English","VSH_Exp2","2016_Mar_23_1907",NA
"Recordings/fifu.wav","no","f","f","i","no","u","fifu","Training","bilabial","TrainingItems",1,93,193,80,NA,NA,NA,NA,NA,NA,NA,NA,NA,NA,48,"M",19,59.7457074239,"French","American English","VSH_Exp2","2016_Mar_23_1907",NA
"Recordings/fifa.wav","no","f","f","i","no","a","fifa","Training","bilabial","TrainingItems",1,94,194,91,NA,NA,NA,NA,NA,NA,NA,NA,NA,NA,48,"M",19,59.7457074239,"French","American English","VSH_Exp2","2016_Mar_23_1907",NA
"Recordings/tipa.wav","no","t","p","i","yes","a","tipa","Training","alveolar","TrainingItems",1,95,195,30,NA,NA,NA,NA,NA,NA,NA,NA,NA,NA,48,"M",19,59.7457074239,"French","American English","VSH_Exp2","2016_Mar_23_1907",NA
"Recordings/dadu.wav","yes","d","d","a","yes","u","dadu","Training","alveolar","TrainingItems",1,96,196,47,NA,NA,NA,NA,NA,NA,NA,NA,NA,NA,48,"M",19,59.7457074239,"French","American English","VSH_Exp2","2016_Mar_23_1907",NA
"Recordings/vava.wav","yes","v","v","a","no","a","vava","Training","bilabial","TrainingItems",1,97,197,97,NA,NA,NA,NA,NA,NA,NA,NA,NA,NA,48,"M",19,59.7457074239,"French","American English","VSH_Exp2","2016_Mar_23_1907",NA
"Recordings/zizu.wav","yes","z","z","i","no","u","zizu","Training","alveolar","TrainingItems",1,98,198,65,NA,NA,NA,NA,NA,NA,NA,NA,NA,NA,48,"M",19,59.7457074239,"French","American English","VSH_Exp2","2016_Mar_23_1907",NA
"Recordings/zuva.wav","yes","z","v","u","no","a","zuva","Training","alveolar","TrainingItems",1,99,199,89,NA,NA,NA,NA,NA,NA,NA,NA,NA,NA,48,"M",19,59.7457074239,"French","American English","VSH_Exp2","2016_Mar_23_1907",NA
NA,NA,NA,NA,NA,NA,NA,NA,NA,NA,NA,NA,NA,NA,NA,NA,NA,NA,NA,NA,NA,"space",2.56925797462,NA,NA,48,"M",19,59.7457074239,"French","American English","VSH_Exp2","2016_Mar_23_1907",NA
"Recordings/sifa.wav","no","s","f","i","no","a","sifa","Test","alveolar","NewWordTestStimuli",NA,NA,NA,NA,0,0,0,25,NA,NA,NA,NA,"Yes",2.087,48,"M",19,59.7457074239,"French","American English","VSH_Exp2","2016_Mar_23_1907",NA
"Recordings/budu.wav","yes","b","d","u","yes","u","budu","Test","bilabial","NewConsTestStimuli",NA,NA,NA,NA,0,1,1,16,NA,NA,NA,NA,"No",1.637,48,"M",19,59.7457074239,"French","American English","VSH_Exp2","2016_Mar_23_1907",NA
"Recordings/visa.wav","yes","v","s","i","no","a","visa","Controls","bilabial","StopControls",NA,NA,NA,NA,0,2,2,32,NA,NA,NA,NA,"Yes",1.687,48,"M",19,59.7457074239,"French","American English","VSH_Exp2","2016_Mar_23_1907",NA
"Recordings/vuvi.wav","yes","v","v","u","no","i","vuvi","Test","bilabial","NewWordTestStimuli",NA,NA,NA,NA,0,3,3,26,NA,NA,NA,NA,"Yes",0.903,48,"M",19,59.7457074239,"French","American English","VSH_Exp2","2016_Mar_23_1907",NA
"Recordings/sapa.wav","no","s","p","a","no","a","sapa","Controls","alveolar","VoicingControls",NA,NA,NA,NA,0,4,4,46,NA,NA,NA,NA,"Yes",0.736,48,"M",19,59.7457074239,"French","American English","VSH_Exp2","2016_Mar_23_1907",NA
"Recordings/suti.wav","no","s","t","u","no","i","suti","Controls","alveolar","VoicingControls",NA,NA,NA,NA,0,5,5,44,NA,NA,NA,NA,"Yes",0.886,48,"M",19,59.7457074239,"French","American English","VSH_Exp2","2016_Mar_23_1907",NA
"Recordings/siba.wav","no","s","b","i","no","a","siba","Controls","alveolar","NoPatternControls",NA,NA,NA,NA,0,6,6,51,NA,NA,NA,NA,"No",1.972,48,"M",19,59.7457074239,"French","American English","VSH_Exp2","2016_Mar_23_1907",NA
"Recordings/sidu.wav","no","s","d","i","no","u","sidu","Controls","alveolar","NoPatternControls",NA,NA,NA,NA,0,7,7,54,NA,NA,NA,NA,"Yes",1.571,48,"M",19,59.7457074239,"French","American English","VSH_Exp2","2016_Mar_23_1907",NA
"Recordings/tida.wav","no","t","d","i","yes","a","tida","Controls","alveolar","StopControls",NA,NA,NA,NA,0,8,8,35,NA,NA,NA,NA,"No",1.704,48,"M",19,59.7457074239,"French","American English","VSH_Exp2","2016_Mar_23_1907",NA
"Recordings/vusu.wav","yes","v","s","u","no","u","vusu","Controls","bilabial","StopControls",NA,NA,NA,NA,0,9,9,37,NA,NA,NA,NA,"Yes",1.804,48,"M",19,59.7457074239,"French","American English","VSH_Exp2","2016_Mar_23_1907",NA
"Recordings/subu.wav","no","s","b","u","no","u","subu","Controls","alveolar","NoPatternControls",NA,NA,NA,NA,0,10,10,53,NA,NA,NA,NA,"No",1.738,48,"M",19,59.7457074239,"French","American English","VSH_Exp2","2016_Mar_23_1907",NA
"Recordings/duda.wav","yes","d","d","u","yes","a","duda","Test","alveolar","OldTestStimuli",NA,NA,NA,NA,0,11,11,8,NA,NA,NA,NA,"Yes",1.521,48,"M",19,59.7457074239,"French","American English","VSH_Exp2","2016_Mar_23_1907",NA
"Recordings/vudu.wav","yes","v","d","u","no","u","vudu","Controls","bilabial","VoicingControls",NA,NA,NA,NA,0,12,12,47,NA,NA,NA,NA,"Yes",1.02,48,"M",19,59.7457074239,"French","American English","VSH_Exp2","2016_Mar_23_1907",NA
"Recordings/tutu.wav","no","t","t","u","yes","u","tutu","Test","alveolar","NewWordTestStimuli",NA,NA,NA,NA,0,13,13,22,NA,NA,NA,NA,"Yes",0.769,48,"M",19,59.7457074239,"French","American English","VSH_Exp2","2016_Mar_23_1907",NA
"Recordings/zufa.wav","yes","z","f","u","no","a","zufa","Controls","alveolar","StopControls",NA,NA,NA,NA,0,14,14,30,NA,NA,NA,NA,"No",1.436,48,"M",19,59.7457074239,"French","American English","VSH_Exp2","2016_Mar_23_1907",NA
"Recordings/putu.wav","no","p","t","u","yes","u","putu","Test","bilabial","NewWordTestStimuli",NA,NA,NA,NA,0,15,15,23,NA,NA,NA,NA,"Yes",1.253,48,"M",19,59.7457074239,"French","American English","VSH_Exp2","2016_Mar_23_1907",NA
"Recordings/fita.wav","no","f","t","i","no","a","fita","Controls","bilabial","VoicingControls",NA,NA,NA,NA,0,16,16,49,NA,NA,NA,NA,"Yes",1.37,48,"M",19,59.7457074239,"French","American English","VSH_Exp2","2016_Mar_23_1907",NA
"Recordings/safu.wav","no","s","f","a","no","u","safu","Test","alveolar","NewWordTestStimuli",NA,NA,NA,NA,0,17,17,21,NA,NA,NA,NA,"Yes",0.786,48,"M",19,59.7457074239,"French","American English","VSH_Exp2","2016_Mar_23_1907",NA
"Recordings/fivi.wav","no","f","v","i","no","i","fivi","Controls","bilabial","StopControls",NA,NA,NA,NA,0,18,18,39,NA,NA,NA,NA,"No",1.987,48,"M",19,59.7457074239,"French","American English","VSH_Exp2","2016_Mar_23_1907",NA
"Recordings/fufa.wav","no","f","f","u","no","a","fufa","Test","bilabial","NewWordTestStimuli",NA,NA,NA,NA,0,19,19,28,NA,NA,NA,NA,"Yes",1.47,48,"M",19,59.7457074239,"French","American English","VSH_Exp2","2016_Mar_23_1907",NA
"Recordings/vida.wav","yes","v","d","i","no","a","vida","Controls","bilabial","VoicingControls",NA,NA,NA,NA,0,20,20,42,NA,NA,NA,NA,"Yes",1.037,48,"M",19,59.7457074239,"French","American English","VSH_Exp2","2016_Mar_23_1907",NA
"Recordings/zuba.wav","yes","z","b","u","no","a","zuba","Controls","alveolar","VoicingControls",NA,NA,NA,NA,0,21,21,40,NA,NA,NA,NA,"No",1.42,48,"M",19,59.7457074239,"French","American English","VSH_Exp2","2016_Mar_23_1907",NA
"Recordings/dibu.wav","yes","d","b","i","yes","u","dibu","Test","alveolar","NewConsTestStimuli",NA,NA,NA,NA,0,22,22,19,NA,NA,NA,NA,"No",1.221,48,"M",19,59.7457074239,"French","American English","VSH_Exp2","2016_Mar_23_1907",NA
"Recordings/fuba.wav","no","f","b","u","no","a","fuba","Controls","bilabial","NoPatternControls",NA,NA,NA,NA,0,23,23,58,NA,NA,NA,NA,"No",0.769,48,"M",19,59.7457074239,"French","American English","VSH_Exp2","2016_Mar_23_1907",NA
"Recordings/pipu.wav","no","p","p","i","yes","u","pipu","Test","bilabial","NewWordTestStimuli",NA,NA,NA,NA,0,24,24,24,NA,NA,NA,NA,"Yes",1.587,48,"M",19,59.7457074239,"French","American English","VSH_Exp2","2016_Mar_23_1907",NA
"Recordings/fizi.wav","no","f","z","i","no","i","fizi","Controls","bilabial","StopControls",NA,NA,NA,NA,0,25,25,38,NA,NA,NA,NA,"No",1.454,48,"M",19,59.7457074239,"French","American English","VSH_Exp2","2016_Mar_23_1907",NA
"Recordings/suza.wav","no","s","z","u","no","a","suza","Controls","alveolar","StopControls",NA,NA,NA,NA,0,26,26,34,NA,NA,NA,NA,"Yes",1.588,48,"M",19,59.7457074239,"French","American English","VSH_Exp2","2016_Mar_23_1907",NA
"Recordings/zuvu.wav","yes","z","v","u","no","u","zuvu","Test","alveolar","NewWordTestStimuli",NA,NA,NA,NA,0,27,27,20,NA,NA,NA,NA,"Yes",1.354,48,"M",19,59.7457074239,"French","American English","VSH_Exp2","2016_Mar_23_1907",NA
"Recordings/tiva.wav","no","t","v","i","yes","a","tiva","Controls","alveolar","NoPatternControls",NA,NA,NA,NA,0,28,28,55,NA,NA,NA,NA,"No",1.587,48,"M",19,59.7457074239,"French","American English","VSH_Exp2","2016_Mar_23_1907",NA
"Recordings/fupa.wav","no","f","p","u","no","a","fupa","Controls","bilabial","VoicingControls",NA,NA,NA,NA,0,29,29,48,NA,NA,NA,NA,"Yes",1.853,48,"M",19,59.7457074239,"French","American English","VSH_Exp2","2016_Mar_23_1907",NA
"Recordings/budi.wav","yes","b","d","u","yes","i","budi","Test","bilabial","NewConsTestStimuli",NA,NA,NA,NA,0,30,30,13,NA,NA,NA,NA,"No",1.504,48,"M",19,59.7457074239,"French","American English","VSH_Exp2","2016_Mar_23_1907",NA
"Recordings/vapa.wav","yes","v","p","a","no","a","vapa","Controls","bilabial","NoPatternControls",NA,NA,NA,NA,0,31,31,57,NA,NA,NA,NA,"No",1.104,48,"M",19,59.7457074239,"French","American English","VSH_Exp2","2016_Mar_23_1907",NA
"Recordings/dubu.wav","yes","d","b","u","yes","u","dubu","Test","alveolar","NewConsTestStimuli",NA,NA,NA,NA,0,32,32,17,NA,NA,NA,NA,"Yes",1.554,48,"M",19,59.7457074239,"French","American English","VSH_Exp2","2016_Mar_23_1907",NA
"Recordings/sivi.wav","no","s","v","i","no","i","sivi","Controls","alveolar","StopControls",NA,NA,NA,NA,0,33,33,31,NA,NA,NA,NA,"No",1.454,48,"M",19,59.7457074239,"French","American English","VSH_Exp2","2016_Mar_23_1907",NA
"Recordings/suzu.wav","no","s","z","u","no","u","suzu","Controls","alveolar","StopControls",NA,NA,NA,NA,0,34,34,36,NA,NA,NA,NA,"Yes",1.737,48,"M",19,59.7457074239,"French","American English","VSH_Exp2","2016_Mar_23_1907",NA
"Recordings/vipa.wav","yes","v","p","i","no","a","vipa","Controls","bilabial","NoPatternControls",NA,NA,NA,NA,0,35,35,52,NA,NA,NA,NA,"Yes",1.17,48,"M",19,59.7457074239,"French","American English","VSH_Exp2","2016_Mar_23_1907",NA
"Recordings/zutu.wav","yes","z","t","u","no","u","zutu","Controls","alveolar","NoPatternControls",NA,NA,NA,NA,0,36,36,50,NA,NA,NA,NA,"No",1.304,48,"M",19,59.7457074239,"French","American English","VSH_Exp2","2016_Mar_23_1907",NA
"Recordings/tifu.wav","no","t","f","i","yes","u","tifu","Controls","alveolar","VoicingControls",NA,NA,NA,NA,0,37,37,45,NA,NA,NA,NA,"Yes",1.653,48,"M",19,59.7457074239,"French","American English","VSH_Exp2","2016_Mar_23_1907",NA
"Recordings/dabi.wav","yes","d","b","a","yes","i","dabi","Test","alveolar","NewConsTestStimuli",NA,NA,NA,NA,0,38,38,11,NA,NA,NA,NA,"No",1.188,48,"M",19,59.7457074239,"French","American English","VSH_Exp2","2016_Mar_23_1907",NA
"Recordings/vuza.wav","yes","v","z","u","no","a","vuza","Test","bilabial","OldTestStimuli",NA,NA,NA,NA,0,39,39,2,NA,NA,NA,NA,"No",1.22,48,"M",19,59.7457074239,"French","American English","VSH_Exp2","2016_Mar_23_1907",NA
"Recordings/faba.wav","no","f","b","a","no","a","faba","Controls","bilabial","NoPatternControls",NA,NA,NA,NA,0,40,40,59,NA,NA,NA,NA,"No",1.003,48,"M",19,59.7457074239,"French","American English","VSH_Exp2","2016_Mar_23_1907",NA
"Recordings/dubi.wav","yes","d","b","u","yes","i","dubi","Test","alveolar","NewConsTestStimuli",NA,NA,NA,NA,0,41,41,10,NA,NA,NA,NA,"No",0.969,48,"M",19,59.7457074239,"French","American English","VSH_Exp2","2016_Mar_23_1907",NA
"Recordings/didu.wav","yes","d","d","i","yes","u","didu","Test","alveolar","OldTestStimuli",NA,NA,NA,NA,0,42,42,3,NA,NA,NA,NA,"Yes",1.404,48,"M",19,59.7457074239,"French","American English","VSH_Exp2","2016_Mar_23_1907",NA
"Recordings/vivu.wav","yes","v","v","i","no","u","vivu","Test","bilabial","OldTestStimuli",NA,NA,NA,NA,0,43,43,7,NA,NA,NA,NA,"Yes",0.686,48,"M",19,59.7457074239,"French","American English","VSH_Exp2","2016_Mar_23_1907",NA
"Recordings/buda.wav","yes","b","d","u","yes","a","buda","Test","bilabial","NewConsTestStimuli",NA,NA,NA,NA,0,44,44,14,NA,NA,NA,NA,"No",1.253,48,"M",19,59.7457074239,"French","American English","VSH_Exp2","2016_Mar_23_1907",NA
"Recordings/daba.wav","yes","d","b","a","yes","a","daba","Test","alveolar","NewConsTestStimuli",NA,NA,NA,NA,0,45,45,12,NA,NA,NA,NA,"Yes",1.822,48,"M",19,59.7457074239,"French","American English","VSH_Exp2","2016_Mar_23_1907",NA
"Recordings/sipu.wav","no","s","p","i","no","u","sipu","Controls","alveolar","VoicingControls",NA,NA,NA,NA,0,46,46,41,NA,NA,NA,NA,"Yes",1.17,48,"M",19,59.7457074239,"French","American English","VSH_Exp2","2016_Mar_23_1907",NA
"Recordings/vivi.wav","yes","v","v","i","no","i","vivi","Test","bilabial","OldTestStimuli",NA,NA,NA,NA,0,47,47,0,NA,NA,NA,NA,"Yes",0.803,48,"M",19,59.7457074239,"French","American English","VSH_Exp2","2016_Mar_23_1907",NA
"Recordings/bada.wav","yes","b","d","a","yes","a","bada","Test","bilabial","NewConsTestStimuli",NA,NA,NA,NA,0,48,48,18,NA,NA,NA,NA,"Yes",1.187,48,"M",19,59.7457074239,"French","American English","VSH_Exp2","2016_Mar_23_1907",NA
"Recordings/sipa.wav","no","s","p","i","no","a","sipa","Controls","alveolar","VoicingControls",NA,NA,NA,NA,0,49,49,43,NA,NA,NA,NA,"Yes",0.769,48,"M",19,59.7457074239,"French","American English","VSH_Exp2","2016_Mar_23_1907",NA
"Recordings/zaza.wav","yes","z","z","a","no","a","zaza","Test","alveolar","OldTestStimuli",NA,NA,NA,NA,0,50,50,9,NA,NA,NA,NA,"Yes",0.836,48,"M",19,59.7457074239,"French","American English","VSH_Exp2","2016_Mar_23_1907",NA
"Recordings/duba.wav","yes","d","b","u","yes","a","duba","Test","alveolar","NewConsTestStimuli",NA,NA,NA,NA,0,51,51,15,NA,NA,NA,NA,"Yes",0.769,48,"M",19,59.7457074239,"French","American English","VSH_Exp2","2016_Mar_23_1907",NA
"Recordings/vuzu.wav","yes","v","z","u","no","u","vuzu","Test","bilabial","NewWordTestStimuli",NA,NA,NA,NA,0,52,52,27,NA,NA,NA,NA,"Yes",0.704,48,"M",19,59.7457074239,"French","American English","VSH_Exp2","2016_Mar_23_1907",NA
"Recordings/pita.wav","no","p","t","i","yes","a","pita","Test","bilabial","OldTestStimuli",NA,NA,NA,NA,0,53,53,6,NA,NA,NA,NA,"Yes",0.869,48,"M",19,59.7457074239,"French","American English","VSH_Exp2","2016_Mar_23_1907",NA
"Recordings/vizu.wav","yes","v","z","i","no","u","vizu","Test","bilabial","OldTestStimuli",NA,NA,NA,NA,0,54,54,1,NA,NA,NA,NA,"Yes",0.785,48,"M",19,59.7457074239,"French","American English","VSH_Exp2","2016_Mar_23_1907",NA
"Recordings/tupi.wav","no","t","p","u","yes","i","tupi","Test","alveolar","OldTestStimuli",NA,NA,NA,NA,0,55,55,5,NA,NA,NA,NA,"No",1.404,48,"M",19,59.7457074239,"French","American English","VSH_Exp2","2016_Mar_23_1907",NA
"Recordings/sazu.wav","no","s","z","a","no","u","sazu","Controls","alveolar","StopControls",NA,NA,NA,NA,0,56,56,33,NA,NA,NA,NA,"No",0.953,48,"M",19,59.7457074239,"French","American English","VSH_Exp2","2016_Mar_23_1907",NA
"Recordings/tita.wav","no","t","t","i","yes","a","tita","Test","alveolar","NewWordTestStimuli",NA,NA,NA,NA,0,57,57,29,NA,NA,NA,NA,"No",0.954,48,"M",19,59.7457074239,"French","American English","VSH_Exp2","2016_Mar_23_1907",NA
"Recordings/bubi.wav","yes","b","b","u","yes","i","bubi","Test","bilabial","OldTestStimuli",NA,NA,NA,NA,0,58,58,4,NA,NA,NA,NA,"No",1.204,48,"M",19,59.7457074239,"French","American English","VSH_Exp2","2016_Mar_23_1907",NA
"Recordings/saba.wav","no","s","b","a","no","a","saba","Controls","alveolar","NoPatternControls",NA,NA,NA,NA,0,59,59,56,NA,NA,NA,NA,"Yes",1.771,48,"M",19,59.7457074239,"French","American English","VSH_Exp2","2016_Mar_23_1907",NA
