"SOUND","VOICING","SEGMENT","SEGMENT3","SEGMENT2","STOP","SEGMENT4","STIMULUS","GENERAL_TYPE","PLACE","TYPE","trials.thisRepN","trials.thisTrialN","trials.thisN","trials.thisIndex","trials_2.thisRepN","trials_2.thisTrialN","trials_2.thisN","trials_2.thisIndex","SpaceBar.keys","SpaceBar.rt","key_resp_2.keys","key_resp_2.rt","rating.response","rating.rt","participant","Gender","Age","frameRate","OtherLanguages","NativeLanguage","expName","date","X34"
NA,NA,NA,NA,NA,NA,NA,NA,NA,NA,NA,NA,NA,NA,NA,NA,NA,NA,NA,"space",15.652269125,NA,NA,NA,NA,4,FALSE,18,59.3379642074,NA,"American English","VSH_Exp2","2016_Feb_23_1737",NA
"Recordings/zivi.wav","yes","z","v","i","no","i","zivi","Training","alveolar","TrainingItems",0,0,0,14,NA,NA,NA,NA,NA,NA,NA,NA,NA,NA,4,FALSE,18,59.3379642074,NA,"American English","VSH_Exp2","2016_Feb_23_1737",NA
"Recordings/fifi.wav","no","f","f","i","no","i","fifi","Training","bilabial","TrainingItems",0,1,1,35,NA,NA,NA,NA,NA,NA,NA,NA,NA,NA,4,FALSE,18,59.3379642074,NA,"American English","VSH_Exp2","2016_Feb_23_1737",NA
"Recordings/babi.wav","yes","b","b","a","yes","i","babi","Training","bilabial","TrainingItems",0,2,2,79,NA,NA,NA,NA,NA,NA,NA,NA,NA,NA,4,FALSE,18,59.3379642074,NA,"American English","VSH_Exp2","2016_Feb_23_1737",NA
"Recordings/fufi.wav","no","f","f","u","no","i","fufi","Training","bilabial","TrainingItems",0,3,3,54,NA,NA,NA,NA,NA,NA,NA,NA,NA,NA,4,FALSE,18,59.3379642074,NA,"American English","VSH_Exp2","2016_Feb_23_1737",NA
"Recordings/vuvi.wav","yes","v","v","u","no","i","vuvi","Training","bilabial","TrainingItems",0,4,4,52,NA,NA,NA,NA,NA,NA,NA,NA,NA,NA,4,FALSE,18,59.3379642074,NA,"American English","VSH_Exp2","2016_Feb_23_1737",NA
"Recordings/susa.wav","no","s","s","u","no","a","susa","Training","alveolar","TrainingItems",0,5,5,19,NA,NA,NA,NA,NA,NA,NA,NA,NA,NA,4,FALSE,18,59.3379642074,NA,"American English","VSH_Exp2","2016_Feb_23_1737",NA
"Recordings/vazu.wav","yes","v","z","a","no","u","vazu","Training","bilabial","TrainingItems",0,6,6,22,NA,NA,NA,NA,NA,NA,NA,NA,NA,NA,4,FALSE,18,59.3379642074,NA,"American English","VSH_Exp2","2016_Feb_23_1737",NA
"Recordings/dabu.wav","yes","d","b","a","yes","u","dabu","Training","alveolar","TrainingItems",0,7,7,87,NA,NA,NA,NA,NA,NA,NA,NA,NA,NA,4,FALSE,18,59.3379642074,NA,"American English","VSH_Exp2","2016_Feb_23_1737",NA
"Recordings/bida.wav","yes","b","d","i","yes","a","bida","Training","bilabial","TrainingItems",0,8,8,3,NA,NA,NA,NA,NA,NA,NA,NA,NA,NA,4,FALSE,18,59.3379642074,NA,"American English","VSH_Exp2","2016_Feb_23_1737",NA
"Recordings/biba.wav","yes","b","b","i","yes","a","biba","Training","bilabial","TrainingItems",0,9,9,88,NA,NA,NA,NA,NA,NA,NA,NA,NA,NA,4,FALSE,18,59.3379642074,NA,"American English","VSH_Exp2","2016_Feb_23_1737",NA
"Recordings/buba.wav","yes","b","b","u","yes","a","buba","Training","bilabial","TrainingItems",0,10,10,56,NA,NA,NA,NA,NA,NA,NA,NA,NA,NA,4,FALSE,18,59.3379642074,NA,"American English","VSH_Exp2","2016_Feb_23_1737",NA
"Recordings/pipa.wav","no","p","p","i","yes","a","pipa","Training","bilabial","TrainingItems",0,11,11,97,NA,NA,NA,NA,NA,NA,NA,NA,NA,NA,4,FALSE,18,59.3379642074,NA,"American English","VSH_Exp2","2016_Feb_23_1737",NA
"Recordings/puta.wav","no","p","t","u","yes","a","puta","Training","bilabial","TrainingItems",0,12,12,77,NA,NA,NA,NA,NA,NA,NA,NA,NA,NA,4,FALSE,18,59.3379642074,NA,"American English","VSH_Exp2","2016_Feb_23_1737",NA
"Recordings/bidu.wav","yes","b","d","i","yes","u","bidu","Training","bilabial","TrainingItems",0,13,13,43,NA,NA,NA,NA,NA,NA,NA,NA,NA,NA,4,FALSE,18,59.3379642074,NA,"American English","VSH_Exp2","2016_Feb_23_1737",NA
"Recordings/papu.wav","no","p","p","a","yes","u","papu","Training","bilabial","TrainingItems",0,14,14,4,NA,NA,NA,NA,NA,NA,NA,NA,NA,NA,4,FALSE,18,59.3379642074,NA,"American English","VSH_Exp2","2016_Feb_23_1737",NA
"Recordings/bada.wav","yes","b","d","a","yes","a","bada","Training","bilabial","TrainingItems",0,15,15,21,NA,NA,NA,NA,NA,NA,NA,NA,NA,NA,4,FALSE,18,59.3379642074,NA,"American English","VSH_Exp2","2016_Feb_23_1737",NA
"Recordings/pipi.wav","no","p","p","i","yes","i","pipi","Training","bilabial","TrainingItems",0,16,16,16,NA,NA,NA,NA,NA,NA,NA,NA,NA,NA,4,FALSE,18,59.3379642074,NA,"American English","VSH_Exp2","2016_Feb_23_1737",NA
"Recordings/duba.wav","yes","d","b","u","yes","a","duba","Training","alveolar","TrainingItems",0,17,17,24,NA,NA,NA,NA,NA,NA,NA,NA,NA,NA,4,FALSE,18,59.3379642074,NA,"American English","VSH_Exp2","2016_Feb_23_1737",NA
"Recordings/badu.wav","yes","b","d","a","yes","u","badu","Training","bilabial","TrainingItems",0,18,18,13,NA,NA,NA,NA,NA,NA,NA,NA,NA,NA,4,FALSE,18,59.3379642074,NA,"American English","VSH_Exp2","2016_Feb_23_1737",NA
"Recordings/vuzu.wav","yes","v","z","u","no","u","vuzu","Training","bilabial","TrainingItems",0,19,19,6,NA,NA,NA,NA,NA,NA,NA,NA,NA,NA,4,FALSE,18,59.3379642074,NA,"American English","VSH_Exp2","2016_Feb_23_1737",NA
"Recordings/babu.wav","yes","b","b","a","yes","u","babu","Training","bilabial","TrainingItems",0,20,20,42,NA,NA,NA,NA,NA,NA,NA,NA,NA,NA,4,FALSE,18,59.3379642074,NA,"American English","VSH_Exp2","2016_Feb_23_1737",NA
"Recordings/vizi.wav","yes","v","z","i","no","i","vizi","Training","bilabial","TrainingItems",0,21,21,44,NA,NA,NA,NA,NA,NA,NA,NA,NA,NA,4,FALSE,18,59.3379642074,NA,"American English","VSH_Exp2","2016_Feb_23_1737",NA
"Recordings/papa.wav","no","p","p","a","yes","a","papa","Training","bilabial","TrainingItems",0,22,22,20,NA,NA,NA,NA,NA,NA,NA,NA,NA,NA,4,FALSE,18,59.3379642074,NA,"American English","VSH_Exp2","2016_Feb_23_1737",NA
"Recordings/fufu.wav","no","f","f","u","no","u","fufu","Training","bilabial","TrainingItems",0,23,23,46,NA,NA,NA,NA,NA,NA,NA,NA,NA,NA,4,FALSE,18,59.3379642074,NA,"American English","VSH_Exp2","2016_Feb_23_1737",NA
"Recordings/zazi.wav","yes","z","z","a","no","i","zazi","Training","alveolar","TrainingItems",0,24,24,26,NA,NA,NA,NA,NA,NA,NA,NA,NA,NA,4,FALSE,18,59.3379642074,NA,"American English","VSH_Exp2","2016_Feb_23_1737",NA
"Recordings/vazi.wav","yes","v","z","a","no","i","vazi","Training","bilabial","TrainingItems",0,25,25,70,NA,NA,NA,NA,NA,NA,NA,NA,NA,NA,4,FALSE,18,59.3379642074,NA,"American English","VSH_Exp2","2016_Feb_23_1737",NA
"Recordings/didi.wav","yes","d","d","i","yes","i","didi","Training","alveolar","TrainingItems",0,26,26,48,NA,NA,NA,NA,NA,NA,NA,NA,NA,NA,4,FALSE,18,59.3379642074,NA,"American English","VSH_Exp2","2016_Feb_23_1737",NA
"Recordings/bibu.wav","yes","b","b","i","yes","u","bibu","Training","bilabial","TrainingItems",0,27,27,78,NA,NA,NA,NA,NA,NA,NA,NA,NA,NA,4,FALSE,18,59.3379642074,NA,"American English","VSH_Exp2","2016_Feb_23_1737",NA
"Recordings/dabi.wav","yes","d","b","a","yes","i","dabi","Training","alveolar","TrainingItems",0,28,28,61,NA,NA,NA,NA,NA,NA,NA,NA,NA,NA,4,FALSE,18,59.3379642074,NA,"American English","VSH_Exp2","2016_Feb_23_1737",NA
"Recordings/bibi.wav","yes","b","b","i","yes","i","bibi","Training","bilabial","TrainingItems",0,29,29,85,NA,NA,NA,NA,NA,NA,NA,NA,NA,NA,4,FALSE,18,59.3379642074,NA,"American English","VSH_Exp2","2016_Feb_23_1737",NA
"Recordings/susu.wav","no","s","s","u","no","u","susu","Training","alveolar","TrainingItems",0,30,30,55,NA,NA,NA,NA,NA,NA,NA,NA,NA,NA,4,FALSE,18,59.3379642074,NA,"American English","VSH_Exp2","2016_Feb_23_1737",NA
"Recordings/dida.wav","yes","d","d","i","yes","a","dida","Training","alveolar","TrainingItems",0,31,31,28,NA,NA,NA,NA,NA,NA,NA,NA,NA,NA,4,FALSE,18,59.3379642074,NA,"American English","VSH_Exp2","2016_Feb_23_1737",NA
"Recordings/sasa.wav","no","s","s","a","no","a","sasa","Training","alveolar","TrainingItems",0,32,32,2,NA,NA,NA,NA,NA,NA,NA,NA,NA,NA,4,FALSE,18,59.3379642074,NA,"American English","VSH_Exp2","2016_Feb_23_1737",NA
"Recordings/pitu.wav","no","p","t","i","yes","u","pitu","Training","bilabial","TrainingItems",0,33,33,49,NA,NA,NA,NA,NA,NA,NA,NA,NA,NA,4,FALSE,18,59.3379642074,NA,"American English","VSH_Exp2","2016_Feb_23_1737",NA
"Recordings/zavi.wav","yes","z","v","a","no","i","zavi","Training","alveolar","TrainingItems",0,34,34,33,NA,NA,NA,NA,NA,NA,NA,NA,NA,NA,4,FALSE,18,59.3379642074,NA,"American English","VSH_Exp2","2016_Feb_23_1737",NA
"Recordings/zizi.wav","yes","z","z","i","no","i","zizi","Training","alveolar","TrainingItems",0,35,35,86,NA,NA,NA,NA,NA,NA,NA,NA,NA,NA,4,FALSE,18,59.3379642074,NA,"American English","VSH_Exp2","2016_Feb_23_1737",NA
"Recordings/vizu.wav","yes","v","z","i","no","u","vizu","Training","bilabial","TrainingItems",0,36,36,80,NA,NA,NA,NA,NA,NA,NA,NA,NA,NA,4,FALSE,18,59.3379642074,NA,"American English","VSH_Exp2","2016_Feb_23_1737",NA
"Recordings/baba.wav","yes","b","b","a","yes","a","baba","Training","bilabial","TrainingItems",0,37,37,31,NA,NA,NA,NA,NA,NA,NA,NA,NA,NA,4,FALSE,18,59.3379642074,NA,"American English","VSH_Exp2","2016_Feb_23_1737",NA
"Recordings/zuva.wav","yes","z","v","u","no","a","zuva","Training","alveolar","TrainingItems",0,38,38,92,NA,NA,NA,NA,NA,NA,NA,NA,NA,NA,4,FALSE,18,59.3379642074,NA,"American English","VSH_Exp2","2016_Feb_23_1737",NA
"Recordings/tuta.wav","no","t","t","u","yes","a","tuta","Training","alveolar","TrainingItems",0,39,39,10,NA,NA,NA,NA,NA,NA,NA,NA,NA,NA,4,FALSE,18,59.3379642074,NA,"American English","VSH_Exp2","2016_Feb_23_1737",NA
"Recordings/vivu.wav","yes","v","v","i","no","u","vivu","Training","bilabial","TrainingItems",0,40,40,53,NA,NA,NA,NA,NA,NA,NA,NA,NA,NA,4,FALSE,18,59.3379642074,NA,"American English","VSH_Exp2","2016_Feb_23_1737",NA
"Recordings/vavu.wav","yes","v","v","a","no","u","vavu","Training","bilabial","TrainingItems",0,41,41,23,NA,NA,NA,NA,NA,NA,NA,NA,NA,NA,4,FALSE,18,59.3379642074,NA,"American English","VSH_Exp2","2016_Feb_23_1737",NA
"Recordings/zaza.wav","yes","z","z","a","no","a","zaza","Training","alveolar","TrainingItems",0,42,42,89,NA,NA,NA,NA,NA,NA,NA,NA,NA,NA,4,FALSE,18,59.3379642074,NA,"American English","VSH_Exp2","2016_Feb_23_1737",NA
"Recordings/titi.wav","no","t","t","i","yes","i","titi","Training","alveolar","TrainingItems",0,43,43,99,NA,NA,NA,NA,NA,NA,NA,NA,NA,NA,4,FALSE,18,59.3379642074,NA,"American English","VSH_Exp2","2016_Feb_23_1737",NA
"Recordings/dada.wav","yes","d","d","a","yes","a","dada","Training","alveolar","TrainingItems",0,44,44,71,NA,NA,NA,NA,NA,NA,NA,NA,NA,NA,4,FALSE,18,59.3379642074,NA,"American English","VSH_Exp2","2016_Feb_23_1737",NA
"Recordings/viza.wav","yes","v","z","i","no","a","viza","Training","bilabial","TrainingItems",0,45,45,38,NA,NA,NA,NA,NA,NA,NA,NA,NA,NA,4,FALSE,18,59.3379642074,NA,"American English","VSH_Exp2","2016_Feb_23_1737",NA
"Recordings/bidi.wav","yes","b","d","i","yes","i","bidi","Training","bilabial","TrainingItems",0,46,46,81,NA,NA,NA,NA,NA,NA,NA,NA,NA,NA,4,FALSE,18,59.3379642074,NA,"American English","VSH_Exp2","2016_Feb_23_1737",NA
"Recordings/dadi.wav","yes","d","d","a","yes","i","dadi","Training","alveolar","TrainingItems",0,47,47,63,NA,NA,NA,NA,NA,NA,NA,NA,NA,NA,4,FALSE,18,59.3379642074,NA,"American English","VSH_Exp2","2016_Feb_23_1737",NA
"Recordings/zava.wav","yes","z","v","a","no","a","zava","Training","alveolar","TrainingItems",0,48,48,7,NA,NA,NA,NA,NA,NA,NA,NA,NA,NA,4,FALSE,18,59.3379642074,NA,"American English","VSH_Exp2","2016_Feb_23_1737",NA
"Recordings/tupi.wav","no","t","p","u","yes","i","tupi","Training","alveolar","TrainingItems",0,49,49,98,NA,NA,NA,NA,NA,NA,NA,NA,NA,NA,4,FALSE,18,59.3379642074,NA,"American English","VSH_Exp2","2016_Feb_23_1737",NA
"Recordings/fifu.wav","no","f","f","i","no","u","fifu","Training","bilabial","TrainingItems",0,50,50,5,NA,NA,NA,NA,NA,NA,NA,NA,NA,NA,4,FALSE,18,59.3379642074,NA,"American English","VSH_Exp2","2016_Feb_23_1737",NA
"Recordings/dubu.wav","yes","d","b","u","yes","u","dubu","Training","alveolar","TrainingItems",0,51,51,51,NA,NA,NA,NA,NA,NA,NA,NA,NA,NA,4,FALSE,18,59.3379642074,NA,"American English","VSH_Exp2","2016_Feb_23_1737",NA
"Recordings/vuva.wav","yes","v","v","u","no","a","vuva","Training","bilabial","TrainingItems",0,52,52,40,NA,NA,NA,NA,NA,NA,NA,NA,NA,NA,4,FALSE,18,59.3379642074,NA,"American English","VSH_Exp2","2016_Feb_23_1737",NA
"Recordings/tuti.wav","no","t","t","u","yes","i","tuti","Training","alveolar","TrainingItems",0,53,53,73,NA,NA,NA,NA,NA,NA,NA,NA,NA,NA,4,FALSE,18,59.3379642074,NA,"American English","VSH_Exp2","2016_Feb_23_1737",NA
"Recordings/vuzi.wav","yes","v","z","u","no","i","vuzi","Training","bilabial","TrainingItems",0,54,54,34,NA,NA,NA,NA,NA,NA,NA,NA,NA,NA,4,FALSE,18,59.3379642074,NA,"American English","VSH_Exp2","2016_Feb_23_1737",NA
"Recordings/dibu.wav","yes","d","b","i","yes","u","dibu","Training","alveolar","TrainingItems",0,55,55,65,NA,NA,NA,NA,NA,NA,NA,NA,NA,NA,4,FALSE,18,59.3379642074,NA,"American English","VSH_Exp2","2016_Feb_23_1737",NA
"Recordings/vivi.wav","yes","v","v","i","no","i","vivi","Training","bilabial","TrainingItems",0,56,56,36,NA,NA,NA,NA,NA,NA,NA,NA,NA,NA,4,FALSE,18,59.3379642074,NA,"American English","VSH_Exp2","2016_Feb_23_1737",NA
"Recordings/badi.wav","yes","b","d","a","yes","i","badi","Training","bilabial","TrainingItems",0,57,57,29,NA,NA,NA,NA,NA,NA,NA,NA,NA,NA,4,FALSE,18,59.3379642074,NA,"American English","VSH_Exp2","2016_Feb_23_1737",NA
"Recordings/piti.wav","no","p","t","i","yes","i","piti","Training","bilabial","TrainingItems",0,58,58,62,NA,NA,NA,NA,NA,NA,NA,NA,NA,NA,4,FALSE,18,59.3379642074,NA,"American English","VSH_Exp2","2016_Feb_23_1737",NA
"Recordings/didu.wav","yes","d","d","i","yes","u","didu","Training","alveolar","TrainingItems",0,59,59,39,NA,NA,NA,NA,NA,NA,NA,NA,NA,NA,4,FALSE,18,59.3379642074,NA,"American English","VSH_Exp2","2016_Feb_23_1737",NA
"Recordings/pita.wav","no","p","t","i","yes","a","pita","Training","bilabial","TrainingItems",0,60,60,74,NA,NA,NA,NA,NA,NA,NA,NA,NA,NA,4,FALSE,18,59.3379642074,NA,"American English","VSH_Exp2","2016_Feb_23_1737",NA
"Recordings/fufa.wav","no","f","f","u","no","a","fufa","Training","bilabial","TrainingItems",0,61,61,93,NA,NA,NA,NA,NA,NA,NA,NA,NA,NA,4,FALSE,18,59.3379642074,NA,"American English","VSH_Exp2","2016_Feb_23_1737",NA
"Recordings/tita.wav","no","t","t","i","yes","a","tita","Training","alveolar","TrainingItems",0,62,62,17,NA,NA,NA,NA,NA,NA,NA,NA,NA,NA,4,FALSE,18,59.3379642074,NA,"American English","VSH_Exp2","2016_Feb_23_1737",NA
"Recordings/zivu.wav","yes","z","v","i","no","u","zivu","Training","alveolar","TrainingItems",0,63,63,9,NA,NA,NA,NA,NA,NA,NA,NA,NA,NA,4,FALSE,18,59.3379642074,NA,"American English","VSH_Exp2","2016_Feb_23_1737",NA
"Recordings/tipi.wav","no","t","p","i","yes","i","tipi","Training","alveolar","TrainingItems",0,64,64,91,NA,NA,NA,NA,NA,NA,NA,NA,NA,NA,4,FALSE,18,59.3379642074,NA,"American English","VSH_Exp2","2016_Feb_23_1737",NA
"Recordings/tipu.wav","no","t","p","i","yes","u","tipu","Training","alveolar","TrainingItems",0,65,65,59,NA,NA,NA,NA,NA,NA,NA,NA,NA,NA,4,FALSE,18,59.3379642074,NA,"American English","VSH_Exp2","2016_Feb_23_1737",NA
"Recordings/putu.wav","no","p","t","u","yes","u","putu","Training","bilabial","TrainingItems",0,66,66,50,NA,NA,NA,NA,NA,NA,NA,NA,NA,NA,4,FALSE,18,59.3379642074,NA,"American English","VSH_Exp2","2016_Feb_23_1737",NA
"Recordings/pupu.wav","no","p","p","u","yes","u","pupu","Training","bilabial","TrainingItems",0,67,67,69,NA,NA,NA,NA,NA,NA,NA,NA,NA,NA,4,FALSE,18,59.3379642074,NA,"American English","VSH_Exp2","2016_Feb_23_1737",NA
"Recordings/zavu.wav","yes","z","v","a","no","u","zavu","Training","alveolar","TrainingItems",0,68,68,75,NA,NA,NA,NA,NA,NA,NA,NA,NA,NA,4,FALSE,18,59.3379642074,NA,"American English","VSH_Exp2","2016_Feb_23_1737",NA
"Recordings/ziza.wav","yes","z","z","i","no","a","ziza","Training","alveolar","TrainingItems",0,69,69,67,NA,NA,NA,NA,NA,NA,NA,NA,NA,NA,4,FALSE,18,59.3379642074,NA,"American English","VSH_Exp2","2016_Feb_23_1737",NA
"Recordings/fifa.wav","no","f","f","i","no","a","fifa","Training","bilabial","TrainingItems",0,70,70,18,NA,NA,NA,NA,NA,NA,NA,NA,NA,NA,4,FALSE,18,59.3379642074,NA,"American English","VSH_Exp2","2016_Feb_23_1737",NA
"Recordings/pupa.wav","no","p","p","u","yes","a","pupa","Training","bilabial","TrainingItems",0,71,71,57,NA,NA,NA,NA,NA,NA,NA,NA,NA,NA,4,FALSE,18,59.3379642074,NA,"American English","VSH_Exp2","2016_Feb_23_1737",NA
"Recordings/zazu.wav","yes","z","z","a","no","u","zazu","Training","alveolar","TrainingItems",0,72,72,15,NA,NA,NA,NA,NA,NA,NA,NA,NA,NA,4,FALSE,18,59.3379642074,NA,"American English","VSH_Exp2","2016_Feb_23_1737",NA
"Recordings/sisu.wav","no","s","s","i","no","u","sisu","Training","alveolar","TrainingItems",0,73,73,84,NA,NA,NA,NA,NA,NA,NA,NA,NA,NA,4,FALSE,18,59.3379642074,NA,"American English","VSH_Exp2","2016_Feb_23_1737",NA
"Recordings/pupi.wav","no","p","p","u","yes","i","pupi","Training","bilabial","TrainingItems",0,74,74,66,NA,NA,NA,NA,NA,NA,NA,NA,NA,NA,4,FALSE,18,59.3379642074,NA,"American English","VSH_Exp2","2016_Feb_23_1737",NA
"Recordings/tipa.wav","no","t","p","i","yes","a","tipa","Training","alveolar","TrainingItems",0,75,75,0,NA,NA,NA,NA,NA,NA,NA,NA,NA,NA,4,FALSE,18,59.3379642074,NA,"American English","VSH_Exp2","2016_Feb_23_1737",NA
"Recordings/titu.wav","no","t","t","i","yes","u","titu","Training","alveolar","TrainingItems",0,76,76,30,NA,NA,NA,NA,NA,NA,NA,NA,NA,NA,4,FALSE,18,59.3379642074,NA,"American English","VSH_Exp2","2016_Feb_23_1737",NA
"Recordings/zizu.wav","yes","z","z","i","no","u","zizu","Training","alveolar","TrainingItems",0,77,77,76,NA,NA,NA,NA,NA,NA,NA,NA,NA,NA,4,FALSE,18,59.3379642074,NA,"American English","VSH_Exp2","2016_Feb_23_1737",NA
"Recordings/diba.wav","yes","d","b","i","yes","a","diba","Training","alveolar","TrainingItems",0,78,78,12,NA,NA,NA,NA,NA,NA,NA,NA,NA,NA,4,FALSE,18,59.3379642074,NA,"American English","VSH_Exp2","2016_Feb_23_1737",NA
"Recordings/dudu.wav","yes","d","d","u","yes","u","dudu","Training","alveolar","TrainingItems",0,79,79,25,NA,NA,NA,NA,NA,NA,NA,NA,NA,NA,4,FALSE,18,59.3379642074,NA,"American English","VSH_Exp2","2016_Feb_23_1737",NA
"Recordings/papi.wav","no","p","p","a","yes","i","papi","Training","bilabial","TrainingItems",0,80,80,90,NA,NA,NA,NA,NA,NA,NA,NA,NA,NA,4,FALSE,18,59.3379642074,NA,"American English","VSH_Exp2","2016_Feb_23_1737",NA
"Recordings/vuvu.wav","yes","v","v","u","no","u","vuvu","Training","bilabial","TrainingItems",0,81,81,47,NA,NA,NA,NA,NA,NA,NA,NA,NA,NA,4,FALSE,18,59.3379642074,NA,"American English","VSH_Exp2","2016_Feb_23_1737",NA
"Recordings/susi.wav","no","s","s","u","no","i","susi","Training","alveolar","TrainingItems",0,82,82,60,NA,NA,NA,NA,NA,NA,NA,NA,NA,NA,4,FALSE,18,59.3379642074,NA,"American English","VSH_Exp2","2016_Feb_23_1737",NA
"Recordings/sisa.wav","no","s","s","i","no","a","sisa","Training","alveolar","TrainingItems",0,83,83,96,NA,NA,NA,NA,NA,NA,NA,NA,NA,NA,4,FALSE,18,59.3379642074,NA,"American English","VSH_Exp2","2016_Feb_23_1737",NA
"Recordings/vuza.wav","yes","v","z","u","no","a","vuza","Training","bilabial","TrainingItems",0,84,84,45,NA,NA,NA,NA,NA,NA,NA,NA,NA,NA,4,FALSE,18,59.3379642074,NA,"American English","VSH_Exp2","2016_Feb_23_1737",NA
"Recordings/tapi.wav","no","t","p","a","yes","i","tapi","Training","alveolar","TrainingItems",0,85,85,83,NA,NA,NA,NA,NA,NA,NA,NA,NA,NA,4,FALSE,18,59.3379642074,NA,"American English","VSH_Exp2","2016_Feb_23_1737",NA
"Recordings/tata.wav","no","t","t","a","yes","a","tata","Training","alveolar","TrainingItems",0,86,86,1,NA,NA,NA,NA,NA,NA,NA,NA,NA,NA,4,FALSE,18,59.3379642074,NA,"American English","VSH_Exp2","2016_Feb_23_1737",NA
"Recordings/sasi.wav","no","s","s","a","no","i","sasi","Training","alveolar","TrainingItems",0,87,87,72,NA,NA,NA,NA,NA,NA,NA,NA,NA,NA,4,FALSE,18,59.3379642074,NA,"American English","VSH_Exp2","2016_Feb_23_1737",NA
"Recordings/dubi.wav","yes","d","b","u","yes","i","dubi","Training","alveolar","TrainingItems",0,88,88,68,NA,NA,NA,NA,NA,NA,NA,NA,NA,NA,4,FALSE,18,59.3379642074,NA,"American English","VSH_Exp2","2016_Feb_23_1737",NA
"Recordings/fafu.wav","no","f","f","a","no","u","fafu","Training","bilabial","TrainingItems",0,89,89,58,NA,NA,NA,NA,NA,NA,NA,NA,NA,NA,4,FALSE,18,59.3379642074,NA,"American English","VSH_Exp2","2016_Feb_23_1737",NA
"Recordings/zuzi.wav","yes","z","z","u","no","i","zuzi","Training","alveolar","TrainingItems",0,90,90,11,NA,NA,NA,NA,NA,NA,NA,NA,NA,NA,4,FALSE,18,59.3379642074,NA,"American English","VSH_Exp2","2016_Feb_23_1737",NA
"Recordings/zuzu.wav","yes","z","z","u","no","u","zuzu","Training","alveolar","TrainingItems",0,91,91,41,NA,NA,NA,NA,NA,NA,NA,NA,NA,NA,4,FALSE,18,59.3379642074,NA,"American English","VSH_Exp2","2016_Feb_23_1737",NA
"Recordings/viva.wav","yes","v","v","i","no","a","viva","Training","bilabial","TrainingItems",0,92,92,64,NA,NA,NA,NA,NA,NA,NA,NA,NA,NA,4,FALSE,18,59.3379642074,NA,"American English","VSH_Exp2","2016_Feb_23_1737",NA
"Recordings/zuvi.wav","yes","z","v","u","no","i","zuvi","Training","alveolar","TrainingItems",0,93,93,8,NA,NA,NA,NA,NA,NA,NA,NA,NA,NA,4,FALSE,18,59.3379642074,NA,"American English","VSH_Exp2","2016_Feb_23_1737",NA
"Recordings/pipu.wav","no","p","p","i","yes","u","pipu","Training","bilabial","TrainingItems",0,94,94,94,NA,NA,NA,NA,NA,NA,NA,NA,NA,NA,4,FALSE,18,59.3379642074,NA,"American English","VSH_Exp2","2016_Feb_23_1737",NA
"Recordings/daba.wav","yes","d","b","a","yes","a","daba","Training","alveolar","TrainingItems",0,95,95,37,NA,NA,NA,NA,NA,NA,NA,NA,NA,NA,4,FALSE,18,59.3379642074,NA,"American English","VSH_Exp2","2016_Feb_23_1737",NA
"Recordings/duda.wav","yes","d","d","u","yes","a","duda","Training","alveolar","TrainingItems",0,96,96,95,NA,NA,NA,NA,NA,NA,NA,NA,NA,NA,4,FALSE,18,59.3379642074,NA,"American English","VSH_Exp2","2016_Feb_23_1737",NA
"Recordings/sisi.wav","no","s","s","i","no","i","sisi","Training","alveolar","TrainingItems",0,97,97,32,NA,NA,NA,NA,NA,NA,NA,NA,NA,NA,4,FALSE,18,59.3379642074,NA,"American English","VSH_Exp2","2016_Feb_23_1737",NA
"Recordings/zuza.wav","yes","z","z","u","no","a","zuza","Training","alveolar","TrainingItems",0,98,98,82,NA,NA,NA,NA,NA,NA,NA,NA,NA,NA,4,FALSE,18,59.3379642074,NA,"American English","VSH_Exp2","2016_Feb_23_1737",NA
"Recordings/vaza.wav","yes","v","z","a","no","a","vaza","Training","bilabial","TrainingItems",0,99,99,27,NA,NA,NA,NA,NA,NA,NA,NA,NA,NA,4,FALSE,18,59.3379642074,NA,"American English","VSH_Exp2","2016_Feb_23_1737",NA
"Recordings/didi.wav","yes","d","d","i","yes","i","didi","Training","alveolar","TrainingItems",1,0,100,48,NA,NA,NA,NA,NA,NA,NA,NA,NA,NA,4,FALSE,18,59.3379642074,NA,"American English","VSH_Exp2","2016_Feb_23_1737",NA
"Recordings/duda.wav","yes","d","d","u","yes","a","duda","Training","alveolar","TrainingItems",1,1,101,95,NA,NA,NA,NA,NA,NA,NA,NA,NA,NA,4,FALSE,18,59.3379642074,NA,"American English","VSH_Exp2","2016_Feb_23_1737",NA
"Recordings/viza.wav","yes","v","z","i","no","a","viza","Training","bilabial","TrainingItems",1,2,102,38,NA,NA,NA,NA,NA,NA,NA,NA,NA,NA,4,FALSE,18,59.3379642074,NA,"American English","VSH_Exp2","2016_Feb_23_1737",NA
"Recordings/buba.wav","yes","b","b","u","yes","a","buba","Training","bilabial","TrainingItems",1,3,103,56,NA,NA,NA,NA,NA,NA,NA,NA,NA,NA,4,FALSE,18,59.3379642074,NA,"American English","VSH_Exp2","2016_Feb_23_1737",NA
"Recordings/fifi.wav","no","f","f","i","no","i","fifi","Training","bilabial","TrainingItems",1,4,104,35,NA,NA,NA,NA,NA,NA,NA,NA,NA,NA,4,FALSE,18,59.3379642074,NA,"American English","VSH_Exp2","2016_Feb_23_1737",NA
"Recordings/pupu.wav","no","p","p","u","yes","u","pupu","Training","bilabial","TrainingItems",1,5,105,69,NA,NA,NA,NA,NA,NA,NA,NA,NA,NA,4,FALSE,18,59.3379642074,NA,"American English","VSH_Exp2","2016_Feb_23_1737",NA
"Recordings/vuza.wav","yes","v","z","u","no","a","vuza","Training","bilabial","TrainingItems",1,6,106,45,NA,NA,NA,NA,NA,NA,NA,NA,NA,NA,4,FALSE,18,59.3379642074,NA,"American English","VSH_Exp2","2016_Feb_23_1737",NA
"Recordings/vuvi.wav","yes","v","v","u","no","i","vuvi","Training","bilabial","TrainingItems",1,7,107,52,NA,NA,NA,NA,NA,NA,NA,NA,NA,NA,4,FALSE,18,59.3379642074,NA,"American English","VSH_Exp2","2016_Feb_23_1737",NA
"Recordings/dudu.wav","yes","d","d","u","yes","u","dudu","Training","alveolar","TrainingItems",1,8,108,25,NA,NA,NA,NA,NA,NA,NA,NA,NA,NA,4,FALSE,18,59.3379642074,NA,"American English","VSH_Exp2","2016_Feb_23_1737",NA
"Recordings/pipu.wav","no","p","p","i","yes","u","pipu","Training","bilabial","TrainingItems",1,9,109,94,NA,NA,NA,NA,NA,NA,NA,NA,NA,NA,4,FALSE,18,59.3379642074,NA,"American English","VSH_Exp2","2016_Feb_23_1737",NA
"Recordings/susa.wav","no","s","s","u","no","a","susa","Training","alveolar","TrainingItems",1,10,110,19,NA,NA,NA,NA,NA,NA,NA,NA,NA,NA,4,FALSE,18,59.3379642074,NA,"American English","VSH_Exp2","2016_Feb_23_1737",NA
"Recordings/dubu.wav","yes","d","b","u","yes","u","dubu","Training","alveolar","TrainingItems",1,11,111,51,NA,NA,NA,NA,NA,NA,NA,NA,NA,NA,4,FALSE,18,59.3379642074,NA,"American English","VSH_Exp2","2016_Feb_23_1737",NA
"Recordings/piti.wav","no","p","t","i","yes","i","piti","Training","bilabial","TrainingItems",1,12,112,62,NA,NA,NA,NA,NA,NA,NA,NA,NA,NA,4,FALSE,18,59.3379642074,NA,"American English","VSH_Exp2","2016_Feb_23_1737",NA
"Recordings/titu.wav","no","t","t","i","yes","u","titu","Training","alveolar","TrainingItems",1,13,113,30,NA,NA,NA,NA,NA,NA,NA,NA,NA,NA,4,FALSE,18,59.3379642074,NA,"American English","VSH_Exp2","2016_Feb_23_1737",NA
"Recordings/papa.wav","no","p","p","a","yes","a","papa","Training","bilabial","TrainingItems",1,14,114,20,NA,NA,NA,NA,NA,NA,NA,NA,NA,NA,4,FALSE,18,59.3379642074,NA,"American English","VSH_Exp2","2016_Feb_23_1737",NA
"Recordings/tupi.wav","no","t","p","u","yes","i","tupi","Training","alveolar","TrainingItems",1,15,115,98,NA,NA,NA,NA,NA,NA,NA,NA,NA,NA,4,FALSE,18,59.3379642074,NA,"American English","VSH_Exp2","2016_Feb_23_1737",NA
"Recordings/babi.wav","yes","b","b","a","yes","i","babi","Training","bilabial","TrainingItems",1,16,116,79,NA,NA,NA,NA,NA,NA,NA,NA,NA,NA,4,FALSE,18,59.3379642074,NA,"American English","VSH_Exp2","2016_Feb_23_1737",NA
"Recordings/bibu.wav","yes","b","b","i","yes","u","bibu","Training","bilabial","TrainingItems",1,17,117,78,NA,NA,NA,NA,NA,NA,NA,NA,NA,NA,4,FALSE,18,59.3379642074,NA,"American English","VSH_Exp2","2016_Feb_23_1737",NA
"Recordings/bibi.wav","yes","b","b","i","yes","i","bibi","Training","bilabial","TrainingItems",1,18,118,85,NA,NA,NA,NA,NA,NA,NA,NA,NA,NA,4,FALSE,18,59.3379642074,NA,"American English","VSH_Exp2","2016_Feb_23_1737",NA
"Recordings/pita.wav","no","p","t","i","yes","a","pita","Training","bilabial","TrainingItems",1,19,119,74,NA,NA,NA,NA,NA,NA,NA,NA,NA,NA,4,FALSE,18,59.3379642074,NA,"American English","VSH_Exp2","2016_Feb_23_1737",NA
"Recordings/babu.wav","yes","b","b","a","yes","u","babu","Training","bilabial","TrainingItems",1,20,120,42,NA,NA,NA,NA,NA,NA,NA,NA,NA,NA,4,FALSE,18,59.3379642074,NA,"American English","VSH_Exp2","2016_Feb_23_1737",NA
"Recordings/sisu.wav","no","s","s","i","no","u","sisu","Training","alveolar","TrainingItems",1,21,121,84,NA,NA,NA,NA,NA,NA,NA,NA,NA,NA,4,FALSE,18,59.3379642074,NA,"American English","VSH_Exp2","2016_Feb_23_1737",NA
"Recordings/sasi.wav","no","s","s","a","no","i","sasi","Training","alveolar","TrainingItems",1,22,122,72,NA,NA,NA,NA,NA,NA,NA,NA,NA,NA,4,FALSE,18,59.3379642074,NA,"American English","VSH_Exp2","2016_Feb_23_1737",NA
"Recordings/viva.wav","yes","v","v","i","no","a","viva","Training","bilabial","TrainingItems",1,23,123,64,NA,NA,NA,NA,NA,NA,NA,NA,NA,NA,4,FALSE,18,59.3379642074,NA,"American English","VSH_Exp2","2016_Feb_23_1737",NA
"Recordings/zuzi.wav","yes","z","z","u","no","i","zuzi","Training","alveolar","TrainingItems",1,24,124,11,NA,NA,NA,NA,NA,NA,NA,NA,NA,NA,4,FALSE,18,59.3379642074,NA,"American English","VSH_Exp2","2016_Feb_23_1737",NA
"Recordings/zivi.wav","yes","z","v","i","no","i","zivi","Training","alveolar","TrainingItems",1,25,125,14,NA,NA,NA,NA,NA,NA,NA,NA,NA,NA,4,FALSE,18,59.3379642074,NA,"American English","VSH_Exp2","2016_Feb_23_1737",NA
"Recordings/vuvu.wav","yes","v","v","u","no","u","vuvu","Training","bilabial","TrainingItems",1,26,126,47,NA,NA,NA,NA,NA,NA,NA,NA,NA,NA,4,FALSE,18,59.3379642074,NA,"American English","VSH_Exp2","2016_Feb_23_1737",NA
"Recordings/dabu.wav","yes","d","b","a","yes","u","dabu","Training","alveolar","TrainingItems",1,27,127,87,NA,NA,NA,NA,NA,NA,NA,NA,NA,NA,4,FALSE,18,59.3379642074,NA,"American English","VSH_Exp2","2016_Feb_23_1737",NA
"Recordings/zivu.wav","yes","z","v","i","no","u","zivu","Training","alveolar","TrainingItems",1,28,128,9,NA,NA,NA,NA,NA,NA,NA,NA,NA,NA,4,FALSE,18,59.3379642074,NA,"American English","VSH_Exp2","2016_Feb_23_1737",NA
"Recordings/vazi.wav","yes","v","z","a","no","i","vazi","Training","bilabial","TrainingItems",1,29,129,70,NA,NA,NA,NA,NA,NA,NA,NA,NA,NA,4,FALSE,18,59.3379642074,NA,"American English","VSH_Exp2","2016_Feb_23_1737",NA
"Recordings/vazu.wav","yes","v","z","a","no","u","vazu","Training","bilabial","TrainingItems",1,30,130,22,NA,NA,NA,NA,NA,NA,NA,NA,NA,NA,4,FALSE,18,59.3379642074,NA,"American English","VSH_Exp2","2016_Feb_23_1737",NA
"Recordings/dada.wav","yes","d","d","a","yes","a","dada","Training","alveolar","TrainingItems",1,31,131,71,NA,NA,NA,NA,NA,NA,NA,NA,NA,NA,4,FALSE,18,59.3379642074,NA,"American English","VSH_Exp2","2016_Feb_23_1737",NA
"Recordings/ziza.wav","yes","z","z","i","no","a","ziza","Training","alveolar","TrainingItems",1,32,132,67,NA,NA,NA,NA,NA,NA,NA,NA,NA,NA,4,FALSE,18,59.3379642074,NA,"American English","VSH_Exp2","2016_Feb_23_1737",NA
"Recordings/puta.wav","no","p","t","u","yes","a","puta","Training","bilabial","TrainingItems",1,33,133,77,NA,NA,NA,NA,NA,NA,NA,NA,NA,NA,4,FALSE,18,59.3379642074,NA,"American English","VSH_Exp2","2016_Feb_23_1737",NA
"Recordings/putu.wav","no","p","t","u","yes","u","putu","Training","bilabial","TrainingItems",1,34,134,50,NA,NA,NA,NA,NA,NA,NA,NA,NA,NA,4,FALSE,18,59.3379642074,NA,"American English","VSH_Exp2","2016_Feb_23_1737",NA
"Recordings/papi.wav","no","p","p","a","yes","i","papi","Training","bilabial","TrainingItems",1,35,135,90,NA,NA,NA,NA,NA,NA,NA,NA,NA,NA,4,FALSE,18,59.3379642074,NA,"American English","VSH_Exp2","2016_Feb_23_1737",NA
"Recordings/tuta.wav","no","t","t","u","yes","a","tuta","Training","alveolar","TrainingItems",1,36,136,10,NA,NA,NA,NA,NA,NA,NA,NA,NA,NA,4,FALSE,18,59.3379642074,NA,"American English","VSH_Exp2","2016_Feb_23_1737",NA
"Recordings/fafu.wav","no","f","f","a","no","u","fafu","Training","bilabial","TrainingItems",1,37,137,58,NA,NA,NA,NA,NA,NA,NA,NA,NA,NA,4,FALSE,18,59.3379642074,NA,"American English","VSH_Exp2","2016_Feb_23_1737",NA
"Recordings/pupa.wav","no","p","p","u","yes","a","pupa","Training","bilabial","TrainingItems",1,38,138,57,NA,NA,NA,NA,NA,NA,NA,NA,NA,NA,4,FALSE,18,59.3379642074,NA,"American English","VSH_Exp2","2016_Feb_23_1737",NA
"Recordings/dabi.wav","yes","d","b","a","yes","i","dabi","Training","alveolar","TrainingItems",1,39,139,61,NA,NA,NA,NA,NA,NA,NA,NA,NA,NA,4,FALSE,18,59.3379642074,NA,"American English","VSH_Exp2","2016_Feb_23_1737",NA
"Recordings/vivi.wav","yes","v","v","i","no","i","vivi","Training","bilabial","TrainingItems",1,40,140,36,NA,NA,NA,NA,NA,NA,NA,NA,NA,NA,4,FALSE,18,59.3379642074,NA,"American English","VSH_Exp2","2016_Feb_23_1737",NA
"Recordings/tuti.wav","no","t","t","u","yes","i","tuti","Training","alveolar","TrainingItems",1,41,141,73,NA,NA,NA,NA,NA,NA,NA,NA,NA,NA,4,FALSE,18,59.3379642074,NA,"American English","VSH_Exp2","2016_Feb_23_1737",NA
"Recordings/pitu.wav","no","p","t","i","yes","u","pitu","Training","bilabial","TrainingItems",1,42,142,49,NA,NA,NA,NA,NA,NA,NA,NA,NA,NA,4,FALSE,18,59.3379642074,NA,"American English","VSH_Exp2","2016_Feb_23_1737",NA
"Recordings/titi.wav","no","t","t","i","yes","i","titi","Training","alveolar","TrainingItems",1,43,143,99,NA,NA,NA,NA,NA,NA,NA,NA,NA,NA,4,FALSE,18,59.3379642074,NA,"American English","VSH_Exp2","2016_Feb_23_1737",NA
"Recordings/vuzu.wav","yes","v","z","u","no","u","vuzu","Training","bilabial","TrainingItems",1,44,144,6,NA,NA,NA,NA,NA,NA,NA,NA,NA,NA,4,FALSE,18,59.3379642074,NA,"American English","VSH_Exp2","2016_Feb_23_1737",NA
"Recordings/vizi.wav","yes","v","z","i","no","i","vizi","Training","bilabial","TrainingItems",1,45,145,44,NA,NA,NA,NA,NA,NA,NA,NA,NA,NA,4,FALSE,18,59.3379642074,NA,"American English","VSH_Exp2","2016_Feb_23_1737",NA
"Recordings/vavu.wav","yes","v","v","a","no","u","vavu","Training","bilabial","TrainingItems",1,46,146,23,NA,NA,NA,NA,NA,NA,NA,NA,NA,NA,4,FALSE,18,59.3379642074,NA,"American English","VSH_Exp2","2016_Feb_23_1737",NA
"Recordings/zazu.wav","yes","z","z","a","no","u","zazu","Training","alveolar","TrainingItems",1,47,147,15,NA,NA,NA,NA,NA,NA,NA,NA,NA,NA,4,FALSE,18,59.3379642074,NA,"American English","VSH_Exp2","2016_Feb_23_1737",NA
"Recordings/fifu.wav","no","f","f","i","no","u","fifu","Training","bilabial","TrainingItems",1,48,148,5,NA,NA,NA,NA,NA,NA,NA,NA,NA,NA,4,FALSE,18,59.3379642074,NA,"American English","VSH_Exp2","2016_Feb_23_1737",NA
"Recordings/zuza.wav","yes","z","z","u","no","a","zuza","Training","alveolar","TrainingItems",1,49,149,82,NA,NA,NA,NA,NA,NA,NA,NA,NA,NA,4,FALSE,18,59.3379642074,NA,"American English","VSH_Exp2","2016_Feb_23_1737",NA
"Recordings/zizi.wav","yes","z","z","i","no","i","zizi","Training","alveolar","TrainingItems",1,50,150,86,NA,NA,NA,NA,NA,NA,NA,NA,NA,NA,4,FALSE,18,59.3379642074,NA,"American English","VSH_Exp2","2016_Feb_23_1737",NA
"Recordings/fufu.wav","no","f","f","u","no","u","fufu","Training","bilabial","TrainingItems",1,51,151,46,NA,NA,NA,NA,NA,NA,NA,NA,NA,NA,4,FALSE,18,59.3379642074,NA,"American English","VSH_Exp2","2016_Feb_23_1737",NA
"Recordings/daba.wav","yes","d","b","a","yes","a","daba","Training","alveolar","TrainingItems",1,52,152,37,NA,NA,NA,NA,NA,NA,NA,NA,NA,NA,4,FALSE,18,59.3379642074,NA,"American English","VSH_Exp2","2016_Feb_23_1737",NA
"Recordings/tata.wav","no","t","t","a","yes","a","tata","Training","alveolar","TrainingItems",1,53,153,1,NA,NA,NA,NA,NA,NA,NA,NA,NA,NA,4,FALSE,18,59.3379642074,NA,"American English","VSH_Exp2","2016_Feb_23_1737",NA
"Recordings/vuva.wav","yes","v","v","u","no","a","vuva","Training","bilabial","TrainingItems",1,54,154,40,NA,NA,NA,NA,NA,NA,NA,NA,NA,NA,4,FALSE,18,59.3379642074,NA,"American English","VSH_Exp2","2016_Feb_23_1737",NA
"Recordings/fufa.wav","no","f","f","u","no","a","fufa","Training","bilabial","TrainingItems",1,55,155,93,NA,NA,NA,NA,NA,NA,NA,NA,NA,NA,4,FALSE,18,59.3379642074,NA,"American English","VSH_Exp2","2016_Feb_23_1737",NA
"Recordings/papu.wav","no","p","p","a","yes","u","papu","Training","bilabial","TrainingItems",1,56,156,4,NA,NA,NA,NA,NA,NA,NA,NA,NA,NA,4,FALSE,18,59.3379642074,NA,"American English","VSH_Exp2","2016_Feb_23_1737",NA
"Recordings/zuzu.wav","yes","z","z","u","no","u","zuzu","Training","alveolar","TrainingItems",1,57,157,41,NA,NA,NA,NA,NA,NA,NA,NA,NA,NA,4,FALSE,18,59.3379642074,NA,"American English","VSH_Exp2","2016_Feb_23_1737",NA
"Recordings/zuvi.wav","yes","z","v","u","no","i","zuvi","Training","alveolar","TrainingItems",1,58,158,8,NA,NA,NA,NA,NA,NA,NA,NA,NA,NA,4,FALSE,18,59.3379642074,NA,"American English","VSH_Exp2","2016_Feb_23_1737",NA
"Recordings/dida.wav","yes","d","d","i","yes","a","dida","Training","alveolar","TrainingItems",1,59,159,28,NA,NA,NA,NA,NA,NA,NA,NA,NA,NA,4,FALSE,18,59.3379642074,NA,"American English","VSH_Exp2","2016_Feb_23_1737",NA
"Recordings/sisa.wav","no","s","s","i","no","a","sisa","Training","alveolar","TrainingItems",1,60,160,96,NA,NA,NA,NA,NA,NA,NA,NA,NA,NA,4,FALSE,18,59.3379642074,NA,"American English","VSH_Exp2","2016_Feb_23_1737",NA
"Recordings/dadi.wav","yes","d","d","a","yes","i","dadi","Training","alveolar","TrainingItems",1,61,161,63,NA,NA,NA,NA,NA,NA,NA,NA,NA,NA,4,FALSE,18,59.3379642074,NA,"American English","VSH_Exp2","2016_Feb_23_1737",NA
"Recordings/fifa.wav","no","f","f","i","no","a","fifa","Training","bilabial","TrainingItems",1,62,162,18,NA,NA,NA,NA,NA,NA,NA,NA,NA,NA,4,FALSE,18,59.3379642074,NA,"American English","VSH_Exp2","2016_Feb_23_1737",NA
"Recordings/pipa.wav","no","p","p","i","yes","a","pipa","Training","bilabial","TrainingItems",1,63,163,97,NA,NA,NA,NA,NA,NA,NA,NA,NA,NA,4,FALSE,18,59.3379642074,NA,"American English","VSH_Exp2","2016_Feb_23_1737",NA
"Recordings/zaza.wav","yes","z","z","a","no","a","zaza","Training","alveolar","TrainingItems",1,64,164,89,NA,NA,NA,NA,NA,NA,NA,NA,NA,NA,4,FALSE,18,59.3379642074,NA,"American English","VSH_Exp2","2016_Feb_23_1737",NA
"Recordings/vuzi.wav","yes","v","z","u","no","i","vuzi","Training","bilabial","TrainingItems",1,65,165,34,NA,NA,NA,NA,NA,NA,NA,NA,NA,NA,4,FALSE,18,59.3379642074,NA,"American English","VSH_Exp2","2016_Feb_23_1737",NA
"Recordings/sisi.wav","no","s","s","i","no","i","sisi","Training","alveolar","TrainingItems",1,66,166,32,NA,NA,NA,NA,NA,NA,NA,NA,NA,NA,4,FALSE,18,59.3379642074,NA,"American English","VSH_Exp2","2016_Feb_23_1737",NA
"Recordings/diba.wav","yes","d","b","i","yes","a","diba","Training","alveolar","TrainingItems",1,67,167,12,NA,NA,NA,NA,NA,NA,NA,NA,NA,NA,4,FALSE,18,59.3379642074,NA,"American English","VSH_Exp2","2016_Feb_23_1737",NA
"Recordings/tapi.wav","no","t","p","a","yes","i","tapi","Training","alveolar","TrainingItems",1,68,168,83,NA,NA,NA,NA,NA,NA,NA,NA,NA,NA,4,FALSE,18,59.3379642074,NA,"American English","VSH_Exp2","2016_Feb_23_1737",NA
"Recordings/fufi.wav","no","f","f","u","no","i","fufi","Training","bilabial","TrainingItems",1,69,169,54,NA,NA,NA,NA,NA,NA,NA,NA,NA,NA,4,FALSE,18,59.3379642074,NA,"American English","VSH_Exp2","2016_Feb_23_1737",NA
"Recordings/baba.wav","yes","b","b","a","yes","a","baba","Training","bilabial","TrainingItems",1,70,170,31,NA,NA,NA,NA,NA,NA,NA,NA,NA,NA,4,FALSE,18,59.3379642074,NA,"American English","VSH_Exp2","2016_Feb_23_1737",NA
"Recordings/bidu.wav","yes","b","d","i","yes","u","bidu","Training","bilabial","TrainingItems",1,71,171,43,NA,NA,NA,NA,NA,NA,NA,NA,NA,NA,4,FALSE,18,59.3379642074,NA,"American English","VSH_Exp2","2016_Feb_23_1737",NA
"Recordings/didu.wav","yes","d","d","i","yes","u","didu","Training","alveolar","TrainingItems",1,72,172,39,NA,NA,NA,NA,NA,NA,NA,NA,NA,NA,4,FALSE,18,59.3379642074,NA,"American English","VSH_Exp2","2016_Feb_23_1737",NA
"Recordings/biba.wav","yes","b","b","i","yes","a","biba","Training","bilabial","TrainingItems",1,73,173,88,NA,NA,NA,NA,NA,NA,NA,NA,NA,NA,4,FALSE,18,59.3379642074,NA,"American English","VSH_Exp2","2016_Feb_23_1737",NA
"Recordings/tipu.wav","no","t","p","i","yes","u","tipu","Training","alveolar","TrainingItems",1,74,174,59,NA,NA,NA,NA,NA,NA,NA,NA,NA,NA,4,FALSE,18,59.3379642074,NA,"American English","VSH_Exp2","2016_Feb_23_1737",NA
"Recordings/bidi.wav","yes","b","d","i","yes","i","bidi","Training","bilabial","TrainingItems",1,75,175,81,NA,NA,NA,NA,NA,NA,NA,NA,NA,NA,4,FALSE,18,59.3379642074,NA,"American English","VSH_Exp2","2016_Feb_23_1737",NA
"Recordings/vaza.wav","yes","v","z","a","no","a","vaza","Training","bilabial","TrainingItems",1,76,176,27,NA,NA,NA,NA,NA,NA,NA,NA,NA,NA,4,FALSE,18,59.3379642074,NA,"American English","VSH_Exp2","2016_Feb_23_1737",NA
"Recordings/pupi.wav","no","p","p","u","yes","i","pupi","Training","bilabial","TrainingItems",1,77,177,66,NA,NA,NA,NA,NA,NA,NA,NA,NA,NA,4,FALSE,18,59.3379642074,NA,"American English","VSH_Exp2","2016_Feb_23_1737",NA
"Recordings/pipi.wav","no","p","p","i","yes","i","pipi","Training","bilabial","TrainingItems",1,78,178,16,NA,NA,NA,NA,NA,NA,NA,NA,NA,NA,4,FALSE,18,59.3379642074,NA,"American English","VSH_Exp2","2016_Feb_23_1737",NA
"Recordings/zava.wav","yes","z","v","a","no","a","zava","Training","alveolar","TrainingItems",1,79,179,7,NA,NA,NA,NA,NA,NA,NA,NA,NA,NA,4,FALSE,18,59.3379642074,NA,"American English","VSH_Exp2","2016_Feb_23_1737",NA
"Recordings/zavu.wav","yes","z","v","a","no","u","zavu","Training","alveolar","TrainingItems",1,80,180,75,NA,NA,NA,NA,NA,NA,NA,NA,NA,NA,4,FALSE,18,59.3379642074,NA,"American English","VSH_Exp2","2016_Feb_23_1737",NA
"Recordings/dubi.wav","yes","d","b","u","yes","i","dubi","Training","alveolar","TrainingItems",1,81,181,68,NA,NA,NA,NA,NA,NA,NA,NA,NA,NA,4,FALSE,18,59.3379642074,NA,"American English","VSH_Exp2","2016_Feb_23_1737",NA
"Recordings/zizu.wav","yes","z","z","i","no","u","zizu","Training","alveolar","TrainingItems",1,82,182,76,NA,NA,NA,NA,NA,NA,NA,NA,NA,NA,4,FALSE,18,59.3379642074,NA,"American English","VSH_Exp2","2016_Feb_23_1737",NA
"Recordings/badu.wav","yes","b","d","a","yes","u","badu","Training","bilabial","TrainingItems",1,83,183,13,NA,NA,NA,NA,NA,NA,NA,NA,NA,NA,4,FALSE,18,59.3379642074,NA,"American English","VSH_Exp2","2016_Feb_23_1737",NA
"Recordings/zazi.wav","yes","z","z","a","no","i","zazi","Training","alveolar","TrainingItems",1,84,184,26,NA,NA,NA,NA,NA,NA,NA,NA,NA,NA,4,FALSE,18,59.3379642074,NA,"American English","VSH_Exp2","2016_Feb_23_1737",NA
"Recordings/sasa.wav","no","s","s","a","no","a","sasa","Training","alveolar","TrainingItems",1,85,185,2,NA,NA,NA,NA,NA,NA,NA,NA,NA,NA,4,FALSE,18,59.3379642074,NA,"American English","VSH_Exp2","2016_Feb_23_1737",NA
"Recordings/vizu.wav","yes","v","z","i","no","u","vizu","Training","bilabial","TrainingItems",1,86,186,80,NA,NA,NA,NA,NA,NA,NA,NA,NA,NA,4,FALSE,18,59.3379642074,NA,"American English","VSH_Exp2","2016_Feb_23_1737",NA
"Recordings/tipa.wav","no","t","p","i","yes","a","tipa","Training","alveolar","TrainingItems",1,87,187,0,NA,NA,NA,NA,NA,NA,NA,NA,NA,NA,4,FALSE,18,59.3379642074,NA,"American English","VSH_Exp2","2016_Feb_23_1737",NA
"Recordings/bida.wav","yes","b","d","i","yes","a","bida","Training","bilabial","TrainingItems",1,88,188,3,NA,NA,NA,NA,NA,NA,NA,NA,NA,NA,4,FALSE,18,59.3379642074,NA,"American English","VSH_Exp2","2016_Feb_23_1737",NA
"Recordings/susi.wav","no","s","s","u","no","i","susi","Training","alveolar","TrainingItems",1,89,189,60,NA,NA,NA,NA,NA,NA,NA,NA,NA,NA,4,FALSE,18,59.3379642074,NA,"American English","VSH_Exp2","2016_Feb_23_1737",NA
"Recordings/dibu.wav","yes","d","b","i","yes","u","dibu","Training","alveolar","TrainingItems",1,90,190,65,NA,NA,NA,NA,NA,NA,NA,NA,NA,NA,4,FALSE,18,59.3379642074,NA,"American English","VSH_Exp2","2016_Feb_23_1737",NA
"Recordings/vivu.wav","yes","v","v","i","no","u","vivu","Training","bilabial","TrainingItems",1,91,191,53,NA,NA,NA,NA,NA,NA,NA,NA,NA,NA,4,FALSE,18,59.3379642074,NA,"American English","VSH_Exp2","2016_Feb_23_1737",NA
"Recordings/badi.wav","yes","b","d","a","yes","i","badi","Training","bilabial","TrainingItems",1,92,192,29,NA,NA,NA,NA,NA,NA,NA,NA,NA,NA,4,FALSE,18,59.3379642074,NA,"American English","VSH_Exp2","2016_Feb_23_1737",NA
"Recordings/duba.wav","yes","d","b","u","yes","a","duba","Training","alveolar","TrainingItems",1,93,193,24,NA,NA,NA,NA,NA,NA,NA,NA,NA,NA,4,FALSE,18,59.3379642074,NA,"American English","VSH_Exp2","2016_Feb_23_1737",NA
"Recordings/tita.wav","no","t","t","i","yes","a","tita","Training","alveolar","TrainingItems",1,94,194,17,NA,NA,NA,NA,NA,NA,NA,NA,NA,NA,4,FALSE,18,59.3379642074,NA,"American English","VSH_Exp2","2016_Feb_23_1737",NA
"Recordings/zavi.wav","yes","z","v","a","no","i","zavi","Training","alveolar","TrainingItems",1,95,195,33,NA,NA,NA,NA,NA,NA,NA,NA,NA,NA,4,FALSE,18,59.3379642074,NA,"American English","VSH_Exp2","2016_Feb_23_1737",NA
"Recordings/zuva.wav","yes","z","v","u","no","a","zuva","Training","alveolar","TrainingItems",1,96,196,92,NA,NA,NA,NA,NA,NA,NA,NA,NA,NA,4,FALSE,18,59.3379642074,NA,"American English","VSH_Exp2","2016_Feb_23_1737",NA
"Recordings/tipi.wav","no","t","p","i","yes","i","tipi","Training","alveolar","TrainingItems",1,97,197,91,NA,NA,NA,NA,NA,NA,NA,NA,NA,NA,4,FALSE,18,59.3379642074,NA,"American English","VSH_Exp2","2016_Feb_23_1737",NA
"Recordings/susu.wav","no","s","s","u","no","u","susu","Training","alveolar","TrainingItems",1,98,198,55,NA,NA,NA,NA,NA,NA,NA,NA,NA,NA,4,FALSE,18,59.3379642074,NA,"American English","VSH_Exp2","2016_Feb_23_1737",NA
"Recordings/bada.wav","yes","b","d","a","yes","a","bada","Training","bilabial","TrainingItems",1,99,199,21,NA,NA,NA,NA,NA,NA,NA,NA,NA,NA,4,FALSE,18,59.3379642074,NA,"American English","VSH_Exp2","2016_Feb_23_1737",NA
NA,NA,NA,NA,NA,NA,NA,NA,NA,NA,NA,NA,NA,NA,NA,NA,NA,NA,NA,NA,NA,"space",4.50674295425,NA,NA,4,FALSE,18,59.3379642074,NA,"American English","VSH_Exp2","2016_Feb_23_1737",NA
"Recordings/bubi.wav","yes","b","b","u","yes","i","bubi","Test","bilabial","NewWordTestStimuli",NA,NA,NA,NA,0,0,0,23,NA,NA,NA,NA,"Yes",2.571,4,FALSE,18,59.3379642074,NA,"American English","VSH_Exp2","2016_Feb_23_1737",NA
"Recordings/bafi.wav","yes","b","f","a","yes","i","bafi","Controls","bilabial","NoPatternControls",NA,NA,NA,NA,0,1,1,53,NA,NA,NA,NA,"No",1.904,4,FALSE,18,59.3379642074,NA,"American English","VSH_Exp2","2016_Feb_23_1737",NA
"Recordings/pifi.wav","no","p","f","i","yes","i","pifi","Controls","bilabial","VoicingControls",NA,NA,NA,NA,0,2,2,44,NA,NA,NA,NA,"No",1.871,4,FALSE,18,59.3379642074,NA,"American English","VSH_Exp2","2016_Feb_23_1737",NA
"Recordings/fasu.wav","no","f","s","a","no","u","fasu","Test","bilabial","NewConsTestStimuli",NA,NA,NA,NA,0,3,3,12,NA,NA,NA,NA,"Yes",1.32,4,FALSE,18,59.3379642074,NA,"American English","VSH_Exp2","2016_Feb_23_1737",NA
"Recordings/zufi.wav","yes","z","f","u","no","i","zufi","Controls","alveolar","StopControls",NA,NA,NA,NA,0,4,4,38,NA,NA,NA,NA,"Yes",0.753,4,FALSE,18,59.3379642074,NA,"American English","VSH_Exp2","2016_Feb_23_1737",NA
"Recordings/tuvu.wav","no","t","v","u","yes","u","tuvu","Controls","alveolar","NoPatternControls",NA,NA,NA,NA,0,5,5,50,NA,NA,NA,NA,"No",1.003,4,FALSE,18,59.3379642074,NA,"American English","VSH_Exp2","2016_Feb_23_1737",NA
"Recordings/tutu.wav","no","t","t","u","yes","u","tutu","Test","alveolar","NewWordTestStimuli",NA,NA,NA,NA,0,6,6,27,NA,NA,NA,NA,"Yes",5.341,4,FALSE,18,59.3379642074,NA,"American English","VSH_Exp2","2016_Feb_23_1737",NA
"Recordings/fizu.wav","no","f","z","i","no","u","fizu","Controls","bilabial","StopControls",NA,NA,NA,NA,0,7,7,35,NA,NA,NA,NA,"Yes",1.103,4,FALSE,18,59.3379642074,NA,"American English","VSH_Exp2","2016_Feb_23_1737",NA
"Recordings/tapa.wav","no","t","p","a","yes","a","tapa","Test","alveolar","NewWordTestStimuli",NA,NA,NA,NA,0,8,8,20,NA,NA,NA,NA,"Yes",1.052,4,FALSE,18,59.3379642074,NA,"American English","VSH_Exp2","2016_Feb_23_1737",NA
"Recordings/fada.wav","no","f","d","a","no","a","fada","Controls","bilabial","NoPatternControls",NA,NA,NA,NA,0,9,9,55,NA,NA,NA,NA,"No",1.787,4,FALSE,18,59.3379642074,NA,"American English","VSH_Exp2","2016_Feb_23_1737",NA
"Recordings/sufi.wav","no","s","f","u","no","i","sufi","Test","alveolar","NewConsTestStimuli",NA,NA,NA,NA,0,10,10,18,NA,NA,NA,NA,"Yes",1.438,4,FALSE,18,59.3379642074,NA,"American English","VSH_Exp2","2016_Feb_23_1737",NA
"Recordings/ziva.wav","yes","z","v","i","no","a","ziva","Test","alveolar","NewWordTestStimuli",NA,NA,NA,NA,0,11,11,29,NA,NA,NA,NA,"Yes",1.104,4,FALSE,18,59.3379642074,NA,"American English","VSH_Exp2","2016_Feb_23_1737",NA
"Recordings/suti.wav","no","s","t","u","no","i","suti","Controls","alveolar","VoicingControls",NA,NA,NA,NA,0,12,12,42,NA,NA,NA,NA,"No",1.121,4,FALSE,18,59.3379642074,NA,"American English","VSH_Exp2","2016_Feb_23_1737",NA
"Recordings/zubi.wav","yes","z","b","u","no","i","zubi","Controls","alveolar","VoicingControls",NA,NA,NA,NA,0,13,13,48,NA,NA,NA,NA,"No",3.238,4,FALSE,18,59.3379642074,NA,"American English","VSH_Exp2","2016_Feb_23_1737",NA
"Recordings/vatu.wav","yes","v","t","a","no","u","vatu","Controls","bilabial","NoPatternControls",NA,NA,NA,NA,0,14,14,57,NA,NA,NA,NA,"No",2.372,4,FALSE,18,59.3379642074,NA,"American English","VSH_Exp2","2016_Feb_23_1737",NA
"Recordings/vuvi.wav","yes","v","v","u","no","i","vuvi","Test","bilabial","OldTestStimuli",NA,NA,NA,NA,0,15,15,2,NA,NA,NA,NA,"Yes",1.353,4,FALSE,18,59.3379642074,NA,"American English","VSH_Exp2","2016_Feb_23_1737",NA
"Recordings/vifi.wav","yes","v","f","i","no","i","vifi","Controls","bilabial","StopControls",NA,NA,NA,NA,0,16,16,36,NA,NA,NA,NA,"No",2.738,4,FALSE,18,59.3379642074,NA,"American English","VSH_Exp2","2016_Feb_23_1737",NA
"Recordings/safa.wav","no","s","f","a","no","a","safa","Test","alveolar","NewConsTestStimuli",NA,NA,NA,NA,0,17,17,17,NA,NA,NA,NA,"No",2.487,4,FALSE,18,59.3379642074,NA,"American English","VSH_Exp2","2016_Feb_23_1737",NA
"Recordings/vuzi.wav","yes","v","z","u","no","i","vuzi","Test","bilabial","OldTestStimuli",NA,NA,NA,NA,0,18,18,5,NA,NA,NA,NA,"Yes",1.387,4,FALSE,18,59.3379642074,NA,"American English","VSH_Exp2","2016_Feb_23_1737",NA
"Recordings/daba.wav","yes","d","b","a","yes","a","daba","Test","alveolar","OldTestStimuli",NA,NA,NA,NA,0,19,19,8,NA,NA,NA,NA,"Yes",1.386,4,FALSE,18,59.3379642074,NA,"American English","VSH_Exp2","2016_Feb_23_1737",NA
"Recordings/bazu.wav","yes","b","z","a","yes","u","bazu","Controls","bilabial","VoicingControls",NA,NA,NA,NA,0,20,20,43,NA,NA,NA,NA,"Yes",0.653,4,FALSE,18,59.3379642074,NA,"American English","VSH_Exp2","2016_Feb_23_1737",NA
"Recordings/safi.wav","no","s","f","a","no","i","safi","Test","alveolar","NewConsTestStimuli",NA,NA,NA,NA,0,21,21,11,NA,NA,NA,NA,"Yes",1.121,4,FALSE,18,59.3379642074,NA,"American English","VSH_Exp2","2016_Feb_23_1737",NA
"Recordings/viva.wav","yes","v","v","i","no","a","viva","Test","bilabial","OldTestStimuli",NA,NA,NA,NA,0,22,22,1,NA,NA,NA,NA,"Yes",0.619,4,FALSE,18,59.3379642074,NA,"American English","VSH_Exp2","2016_Feb_23_1737",NA
"Recordings/bida.wav","yes","b","d","i","yes","a","bida","Test","bilabial","OldTestStimuli",NA,NA,NA,NA,0,23,23,3,NA,NA,NA,NA,"Yes",0.587,4,FALSE,18,59.3379642074,NA,"American English","VSH_Exp2","2016_Feb_23_1737",NA
"Recordings/sisu.wav","no","s","s","i","no","u","sisu","Test","alveolar","OldTestStimuli",NA,NA,NA,NA,0,24,24,7,NA,NA,NA,NA,"Yes",0.921,4,FALSE,18,59.3379642074,NA,"American English","VSH_Exp2","2016_Feb_23_1737",NA
"Recordings/dibi.wav","yes","d","b","i","yes","i","dibi","Test","alveolar","NewWordTestStimuli",NA,NA,NA,NA,0,25,25,25,NA,NA,NA,NA,"Yes",0.603,4,FALSE,18,59.3379642074,NA,"American English","VSH_Exp2","2016_Feb_23_1737",NA
"Recordings/zupa.wav","yes","z","p","u","no","a","zupa","Controls","alveolar","NoPatternControls",NA,NA,NA,NA,0,26,26,58,NA,NA,NA,NA,"No",1.305,4,FALSE,18,59.3379642074,NA,"American English","VSH_Exp2","2016_Feb_23_1737",NA
"Recordings/tidu.wav","no","t","d","i","yes","u","tidu","Controls","alveolar","StopControls",NA,NA,NA,NA,0,27,27,31,NA,NA,NA,NA,"Yes",1.237,4,FALSE,18,59.3379642074,NA,"American English","VSH_Exp2","2016_Feb_23_1737",NA
"Recordings/dada.wav","yes","d","d","a","yes","a","dada","Test","alveolar","OldTestStimuli",NA,NA,NA,NA,0,28,28,0,NA,NA,NA,NA,"Yes",0.685,4,FALSE,18,59.3379642074,NA,"American English","VSH_Exp2","2016_Feb_23_1737",NA
"Recordings/tupu.wav","no","t","p","u","yes","u","tupu","Test","alveolar","NewWordTestStimuli",NA,NA,NA,NA,0,29,29,21,NA,NA,NA,NA,"Yes",0.686,4,FALSE,18,59.3379642074,NA,"American English","VSH_Exp2","2016_Feb_23_1737",NA
"Recordings/tivi.wav","no","t","v","i","yes","i","tivi","Controls","alveolar","NoPatternControls",NA,NA,NA,NA,0,30,30,51,NA,NA,NA,NA,"No",1.104,4,FALSE,18,59.3379642074,NA,"American English","VSH_Exp2","2016_Feb_23_1737",NA
"Recordings/pizi.wav","no","p","z","i","yes","i","pizi","Controls","bilabial","NoPatternControls",NA,NA,NA,NA,0,31,31,54,NA,NA,NA,NA,"No",1.137,4,FALSE,18,59.3379642074,NA,"American English","VSH_Exp2","2016_Feb_23_1737",NA
"Recordings/vibi.wav","yes","v","b","i","no","i","vibi","Controls","bilabial","VoicingControls",NA,NA,NA,NA,0,32,32,46,NA,NA,NA,NA,"No",1.437,4,FALSE,18,59.3379642074,NA,"American English","VSH_Exp2","2016_Feb_23_1737",NA
"Recordings/sifu.wav","no","s","f","i","no","u","sifu","Test","alveolar","NewConsTestStimuli",NA,NA,NA,NA,0,33,33,19,NA,NA,NA,NA,"Yes",1.136,4,FALSE,18,59.3379642074,NA,"American English","VSH_Exp2","2016_Feb_23_1737",NA
"Recordings/fasi.wav","no","f","s","a","no","i","fasi","Test","bilabial","NewConsTestStimuli",NA,NA,NA,NA,0,34,34,15,NA,NA,NA,NA,"Yes",4.074,4,FALSE,18,59.3379642074,NA,"American English","VSH_Exp2","2016_Feb_23_1737",NA
"Recordings/safu.wav","no","s","f","a","no","u","safu","Test","alveolar","NewConsTestStimuli",NA,NA,NA,NA,0,35,35,10,NA,NA,NA,NA,"No",1.888,4,FALSE,18,59.3379642074,NA,"American English","VSH_Exp2","2016_Feb_23_1737",NA
"Recordings/zifu.wav","yes","z","f","i","no","u","zifu","Controls","alveolar","StopControls",NA,NA,NA,NA,0,36,36,39,NA,NA,NA,NA,"Yes",1.537,4,FALSE,18,59.3379642074,NA,"American English","VSH_Exp2","2016_Feb_23_1737",NA
"Recordings/fusa.wav","no","f","s","u","no","a","fusa","Test","bilabial","NewConsTestStimuli",NA,NA,NA,NA,0,37,37,14,NA,NA,NA,NA,"Yes",1.019,4,FALSE,18,59.3379642074,NA,"American English","VSH_Exp2","2016_Feb_23_1737",NA
"Recordings/vidi.wav","yes","v","d","i","no","i","vidi","Controls","bilabial","VoicingControls",NA,NA,NA,NA,0,38,38,47,NA,NA,NA,NA,"Yes",3.108,4,FALSE,18,59.3379642074,NA,"American English","VSH_Exp2","2016_Feb_23_1737",NA
"Recordings/tupa.wav","no","t","p","u","yes","a","tupa","Test","alveolar","NewWordTestStimuli",NA,NA,NA,NA,0,39,39,26,NA,NA,NA,NA,"Yes",0.77,4,FALSE,18,59.3379642074,NA,"American English","VSH_Exp2","2016_Feb_23_1737",NA
"Recordings/tafa.wav","no","t","f","a","yes","a","tafa","Controls","alveolar","VoicingControls",NA,NA,NA,NA,0,40,40,40,NA,NA,NA,NA,"No",1.32,4,FALSE,18,59.3379642074,NA,"American English","VSH_Exp2","2016_Feb_23_1737",NA
"Recordings/tatu.wav","no","t","t","a","yes","u","tatu","Test","alveolar","NewWordTestStimuli",NA,NA,NA,NA,0,41,41,28,NA,NA,NA,NA,"No",2.271,4,FALSE,18,59.3379642074,NA,"American English","VSH_Exp2","2016_Feb_23_1737",NA
"Recordings/fisa.wav","no","f","s","i","no","a","fisa","Test","bilabial","NewConsTestStimuli",NA,NA,NA,NA,0,42,42,13,NA,NA,NA,NA,"No",1.053,4,FALSE,18,59.3379642074,NA,"American English","VSH_Exp2","2016_Feb_23_1737",NA
"Recordings/zibu.wav","yes","z","b","i","no","u","zibu","Controls","alveolar","VoicingControls",NA,NA,NA,NA,0,43,43,49,NA,NA,NA,NA,"Yes",2.088,4,FALSE,18,59.3379642074,NA,"American English","VSH_Exp2","2016_Feb_23_1737",NA
"Recordings/fupi.wav","no","f","p","u","no","i","fupi","Controls","bilabial","VoicingControls",NA,NA,NA,NA,0,44,44,45,NA,NA,NA,NA,"No",1.57,4,FALSE,18,59.3379642074,NA,"American English","VSH_Exp2","2016_Feb_23_1737",NA
"Recordings/sidu.wav","no","s","d","i","no","u","sidu","Controls","alveolar","NoPatternControls",NA,NA,NA,NA,0,45,45,52,NA,NA,NA,NA,"No",0.77,4,FALSE,18,59.3379642074,NA,"American English","VSH_Exp2","2016_Feb_23_1737",NA
"Recordings/tasu.wav","no","t","s","a","yes","u","tasu","Controls","alveolar","VoicingControls",NA,NA,NA,NA,0,46,46,41,NA,NA,NA,NA,"No",0.953,4,FALSE,18,59.3379642074,NA,"American English","VSH_Exp2","2016_Feb_23_1737",NA
"Recordings/batu.wav","yes","b","t","a","yes","u","batu","Controls","bilabial","StopControls",NA,NA,NA,NA,0,47,47,33,NA,NA,NA,NA,"Yes",3.139,4,FALSE,18,59.3379642074,NA,"American English","VSH_Exp2","2016_Feb_23_1737",NA
"Recordings/visi.wav","yes","v","s","i","no","i","visi","Controls","bilabial","StopControls",NA,NA,NA,NA,0,48,48,37,NA,NA,NA,NA,"No",1.404,4,FALSE,18,59.3379642074,NA,"American English","VSH_Exp2","2016_Feb_23_1737",NA
"Recordings/viza.wav","yes","v","z","i","no","a","viza","Test","bilabial","OldTestStimuli",NA,NA,NA,NA,0,49,49,4,NA,NA,NA,NA,"Yes",1.254,4,FALSE,18,59.3379642074,NA,"American English","VSH_Exp2","2016_Feb_23_1737",NA
"Recordings/tabu.wav","no","t","b","a","yes","u","tabu","Controls","alveolar","StopControls",NA,NA,NA,NA,0,50,50,30,NA,NA,NA,NA,"No",1.236,4,FALSE,18,59.3379642074,NA,"American English","VSH_Exp2","2016_Feb_23_1737",NA
"Recordings/zuta.wav","yes","z","t","u","no","a","zuta","Controls","alveolar","NoPatternControls",NA,NA,NA,NA,0,51,51,59,NA,NA,NA,NA,"No",1.204,4,FALSE,18,59.3379642074,NA,"American English","VSH_Exp2","2016_Feb_23_1737",NA
"Recordings/suza.wav","no","s","z","u","no","a","suza","Controls","alveolar","StopControls",NA,NA,NA,NA,0,52,52,32,NA,NA,NA,NA,"No",2.322,4,FALSE,18,59.3379642074,NA,"American English","VSH_Exp2","2016_Feb_23_1737",NA
"Recordings/fafa.wav","no","f","f","a","no","a","fafa","Test","bilabial","NewWordTestStimuli",NA,NA,NA,NA,0,53,53,24,NA,NA,NA,NA,"No",3.724,4,FALSE,18,59.3379642074,NA,"American English","VSH_Exp2","2016_Feb_23_1737",NA
"Recordings/patu.wav","no","p","t","a","yes","u","patu","Test","bilabial","NewWordTestStimuli",NA,NA,NA,NA,0,54,54,22,NA,NA,NA,NA,"No",2.472,4,FALSE,18,59.3379642074,NA,"American English","VSH_Exp2","2016_Feb_23_1737",NA
"Recordings/sufu.wav","no","s","f","u","no","u","sufu","Test","alveolar","NewConsTestStimuli",NA,NA,NA,NA,0,55,55,16,NA,NA,NA,NA,"Yes",1.521,4,FALSE,18,59.3379642074,NA,"American English","VSH_Exp2","2016_Feb_23_1737",NA
"Recordings/vupi.wav","yes","v","p","u","no","i","vupi","Controls","bilabial","NoPatternControls",NA,NA,NA,NA,0,56,56,56,NA,NA,NA,NA,"No",1.104,4,FALSE,18,59.3379642074,NA,"American English","VSH_Exp2","2016_Feb_23_1737",NA
"Recordings/pibi.wav","no","p","b","i","yes","i","pibi","Controls","bilabial","StopControls",NA,NA,NA,NA,0,57,57,34,NA,NA,NA,NA,"Yes",1.97,4,FALSE,18,59.3379642074,NA,"American English","VSH_Exp2","2016_Feb_23_1737",NA
"Recordings/pita.wav","no","p","t","i","yes","a","pita","Test","bilabial","OldTestStimuli",NA,NA,NA,NA,0,58,58,6,NA,NA,NA,NA,"Yes",0.718,4,FALSE,18,59.3379642074,NA,"American English","VSH_Exp2","2016_Feb_23_1737",NA
"Recordings/papi.wav","no","p","p","a","yes","i","papi","Test","bilabial","OldTestStimuli",NA,NA,NA,NA,0,59,59,9,NA,NA,NA,NA,"Yes",0.585,4,FALSE,18,59.3379642074,NA,"American English","VSH_Exp2","2016_Feb_23_1737",NA
