"SOUND","VOICING","SEGMENT","SEGMENT3","SEGMENT2","STOP","SEGMENT4","STIMULUS","GENERAL_TYPE","PLACE","TYPE","trials.thisRepN","trials.thisTrialN","trials.thisN","trials.thisIndex","trials_2.thisRepN","trials_2.thisTrialN","trials_2.thisN","trials_2.thisIndex","SpaceBar.keys","SpaceBar.rt","key_resp_2.keys","key_resp_2.rt","rating.response","rating.rt","participant","Gender","Age","frameRate","OtherLanguages","NativeLanguage","expName","date","X34"
NA,NA,NA,NA,NA,NA,NA,NA,NA,NA,NA,NA,NA,NA,NA,NA,NA,NA,NA,"space",0.817358970642,NA,NA,NA,NA,51,FALSE,21,59.9492026648,NA,"American English","VSH_Exp2","2016_Mar_23_1907",NA
"Recordings/tapi.wav","no","t","p","a","yes","i","tapi","Training","alveolar","TrainingItems",0,0,0,68,NA,NA,NA,NA,NA,NA,NA,NA,NA,NA,51,FALSE,21,59.9492026648,NA,"American English","VSH_Exp2","2016_Mar_23_1907",NA
"Recordings/pata.wav","no","p","t","a","yes","a","pata","Training","bilabial","TrainingItems",0,1,1,78,NA,NA,NA,NA,NA,NA,NA,NA,NA,NA,51,FALSE,21,59.9492026648,NA,"American English","VSH_Exp2","2016_Mar_23_1907",NA
"Recordings/bibu.wav","yes","b","b","i","yes","u","bibu","Training","bilabial","TrainingItems",0,2,2,74,NA,NA,NA,NA,NA,NA,NA,NA,NA,NA,51,FALSE,21,59.9492026648,NA,"American English","VSH_Exp2","2016_Mar_23_1907",NA
"Recordings/zuva.wav","yes","z","v","u","no","a","zuva","Training","alveolar","TrainingItems",0,3,3,33,NA,NA,NA,NA,NA,NA,NA,NA,NA,NA,51,FALSE,21,59.9492026648,NA,"American English","VSH_Exp2","2016_Mar_23_1907",NA
"Recordings/zaza.wav","yes","z","z","a","no","a","zaza","Training","alveolar","TrainingItems",0,4,4,50,NA,NA,NA,NA,NA,NA,NA,NA,NA,NA,51,FALSE,21,59.9492026648,NA,"American English","VSH_Exp2","2016_Mar_23_1907",NA
"Recordings/susi.wav","no","s","s","u","no","i","susi","Training","alveolar","TrainingItems",0,5,5,80,NA,NA,NA,NA,NA,NA,NA,NA,NA,NA,51,FALSE,21,59.9492026648,NA,"American English","VSH_Exp2","2016_Mar_23_1907",NA
"Recordings/sasi.wav","no","s","s","a","no","i","sasi","Training","alveolar","TrainingItems",0,6,6,39,NA,NA,NA,NA,NA,NA,NA,NA,NA,NA,51,FALSE,21,59.9492026648,NA,"American English","VSH_Exp2","2016_Mar_23_1907",NA
"Recordings/vizu.wav","yes","v","z","i","no","u","vizu","Training","bilabial","TrainingItems",0,7,7,54,NA,NA,NA,NA,NA,NA,NA,NA,NA,NA,51,FALSE,21,59.9492026648,NA,"American English","VSH_Exp2","2016_Mar_23_1907",NA
"Recordings/tipa.wav","no","t","p","i","yes","a","tipa","Training","alveolar","TrainingItems",0,8,8,7,NA,NA,NA,NA,NA,NA,NA,NA,NA,NA,51,FALSE,21,59.9492026648,NA,"American English","VSH_Exp2","2016_Mar_23_1907",NA
"Recordings/puta.wav","no","p","t","u","yes","a","puta","Training","bilabial","TrainingItems",0,9,9,20,NA,NA,NA,NA,NA,NA,NA,NA,NA,NA,51,FALSE,21,59.9492026648,NA,"American English","VSH_Exp2","2016_Mar_23_1907",NA
"Recordings/tipi.wav","no","t","p","i","yes","i","tipi","Training","alveolar","TrainingItems",0,10,10,13,NA,NA,NA,NA,NA,NA,NA,NA,NA,NA,51,FALSE,21,59.9492026648,NA,"American English","VSH_Exp2","2016_Mar_23_1907",NA
"Recordings/bubu.wav","yes","b","b","u","yes","u","bubu","Training","bilabial","TrainingItems",0,11,11,57,NA,NA,NA,NA,NA,NA,NA,NA,NA,NA,51,FALSE,21,59.9492026648,NA,"American English","VSH_Exp2","2016_Mar_23_1907",NA
"Recordings/zuzu.wav","yes","z","z","u","no","u","zuzu","Training","alveolar","TrainingItems",0,12,12,88,NA,NA,NA,NA,NA,NA,NA,NA,NA,NA,51,FALSE,21,59.9492026648,NA,"American English","VSH_Exp2","2016_Mar_23_1907",NA
"Recordings/zuvu.wav","yes","z","v","u","no","u","zuvu","Training","alveolar","TrainingItems",0,13,13,32,NA,NA,NA,NA,NA,NA,NA,NA,NA,NA,51,FALSE,21,59.9492026648,NA,"American English","VSH_Exp2","2016_Mar_23_1907",NA
"Recordings/sasa.wav","no","s","s","a","no","a","sasa","Training","alveolar","TrainingItems",0,14,14,5,NA,NA,NA,NA,NA,NA,NA,NA,NA,NA,51,FALSE,21,59.9492026648,NA,"American English","VSH_Exp2","2016_Mar_23_1907",NA
"Recordings/sifa.wav","no","s","f","i","no","a","sifa","Training","alveolar","TrainingItems",0,15,15,92,NA,NA,NA,NA,NA,NA,NA,NA,NA,NA,51,FALSE,21,59.9492026648,NA,"American English","VSH_Exp2","2016_Mar_23_1907",NA
"Recordings/fafa.wav","no","f","f","a","no","a","fafa","Training","bilabial","TrainingItems",0,16,16,76,NA,NA,NA,NA,NA,NA,NA,NA,NA,NA,51,FALSE,21,59.9492026648,NA,"American English","VSH_Exp2","2016_Mar_23_1907",NA
"Recordings/fusu.wav","no","f","s","u","no","u","fusu","Training","bilabial","TrainingItems",0,17,17,17,NA,NA,NA,NA,NA,NA,NA,NA,NA,NA,51,FALSE,21,59.9492026648,NA,"American English","VSH_Exp2","2016_Mar_23_1907",NA
"Recordings/putu.wav","no","p","t","u","yes","u","putu","Training","bilabial","TrainingItems",0,18,18,87,NA,NA,NA,NA,NA,NA,NA,NA,NA,NA,51,FALSE,21,59.9492026648,NA,"American English","VSH_Exp2","2016_Mar_23_1907",NA
"Recordings/zuzi.wav","yes","z","z","u","no","i","zuzi","Training","alveolar","TrainingItems",0,19,19,55,NA,NA,NA,NA,NA,NA,NA,NA,NA,NA,51,FALSE,21,59.9492026648,NA,"American English","VSH_Exp2","2016_Mar_23_1907",NA
"Recordings/dudu.wav","yes","d","d","u","yes","u","dudu","Training","alveolar","TrainingItems",0,20,20,11,NA,NA,NA,NA,NA,NA,NA,NA,NA,NA,51,FALSE,21,59.9492026648,NA,"American English","VSH_Exp2","2016_Mar_23_1907",NA
"Recordings/papu.wav","no","p","p","a","yes","u","papu","Training","bilabial","TrainingItems",0,21,21,48,NA,NA,NA,NA,NA,NA,NA,NA,NA,NA,51,FALSE,21,59.9492026648,NA,"American English","VSH_Exp2","2016_Mar_23_1907",NA
"Recordings/babi.wav","yes","b","b","a","yes","i","babi","Training","bilabial","TrainingItems",0,22,22,1,NA,NA,NA,NA,NA,NA,NA,NA,NA,NA,51,FALSE,21,59.9492026648,NA,"American English","VSH_Exp2","2016_Mar_23_1907",NA
"Recordings/tapu.wav","no","t","p","a","yes","u","tapu","Training","alveolar","TrainingItems",0,23,23,2,NA,NA,NA,NA,NA,NA,NA,NA,NA,NA,51,FALSE,21,59.9492026648,NA,"American English","VSH_Exp2","2016_Mar_23_1907",NA
"Recordings/pupa.wav","no","p","p","u","yes","a","pupa","Training","bilabial","TrainingItems",0,24,24,66,NA,NA,NA,NA,NA,NA,NA,NA,NA,NA,51,FALSE,21,59.9492026648,NA,"American English","VSH_Exp2","2016_Mar_23_1907",NA
"Recordings/zizi.wav","yes","z","z","i","no","i","zizi","Training","alveolar","TrainingItems",0,25,25,60,NA,NA,NA,NA,NA,NA,NA,NA,NA,NA,51,FALSE,21,59.9492026648,NA,"American English","VSH_Exp2","2016_Mar_23_1907",NA
"Recordings/pita.wav","no","p","t","i","yes","a","pita","Training","bilabial","TrainingItems",0,26,26,21,NA,NA,NA,NA,NA,NA,NA,NA,NA,NA,51,FALSE,21,59.9492026648,NA,"American English","VSH_Exp2","2016_Mar_23_1907",NA
"Recordings/safa.wav","no","s","f","a","no","a","safa","Training","alveolar","TrainingItems",0,27,27,12,NA,NA,NA,NA,NA,NA,NA,NA,NA,NA,51,FALSE,21,59.9492026648,NA,"American English","VSH_Exp2","2016_Mar_23_1907",NA
"Recordings/sufu.wav","no","s","f","u","no","u","sufu","Training","alveolar","TrainingItems",0,28,28,49,NA,NA,NA,NA,NA,NA,NA,NA,NA,NA,51,FALSE,21,59.9492026648,NA,"American English","VSH_Exp2","2016_Mar_23_1907",NA
"Recordings/zivu.wav","yes","z","v","i","no","u","zivu","Training","alveolar","TrainingItems",0,29,29,37,NA,NA,NA,NA,NA,NA,NA,NA,NA,NA,51,FALSE,21,59.9492026648,NA,"American English","VSH_Exp2","2016_Mar_23_1907",NA
"Recordings/dada.wav","yes","d","d","a","yes","a","dada","Training","alveolar","TrainingItems",0,30,30,23,NA,NA,NA,NA,NA,NA,NA,NA,NA,NA,51,FALSE,21,59.9492026648,NA,"American English","VSH_Exp2","2016_Mar_23_1907",NA
"Recordings/vivi.wav","yes","v","v","i","no","i","vivi","Training","bilabial","TrainingItems",0,31,31,35,NA,NA,NA,NA,NA,NA,NA,NA,NA,NA,51,FALSE,21,59.9492026648,NA,"American English","VSH_Exp2","2016_Mar_23_1907",NA
"Recordings/vivu.wav","yes","v","v","i","no","u","vivu","Training","bilabial","TrainingItems",0,32,32,64,NA,NA,NA,NA,NA,NA,NA,NA,NA,NA,51,FALSE,21,59.9492026648,NA,"American English","VSH_Exp2","2016_Mar_23_1907",NA
"Recordings/titi.wav","no","t","t","i","yes","i","titi","Training","alveolar","TrainingItems",0,33,33,34,NA,NA,NA,NA,NA,NA,NA,NA,NA,NA,51,FALSE,21,59.9492026648,NA,"American English","VSH_Exp2","2016_Mar_23_1907",NA
"Recordings/zuvi.wav","yes","z","v","u","no","i","zuvi","Training","alveolar","TrainingItems",0,34,34,58,NA,NA,NA,NA,NA,NA,NA,NA,NA,NA,51,FALSE,21,59.9492026648,NA,"American English","VSH_Exp2","2016_Mar_23_1907",NA
"Recordings/safu.wav","no","s","f","a","no","u","safu","Training","alveolar","TrainingItems",0,35,35,94,NA,NA,NA,NA,NA,NA,NA,NA,NA,NA,51,FALSE,21,59.9492026648,NA,"American English","VSH_Exp2","2016_Mar_23_1907",NA
"Recordings/dudi.wav","yes","d","d","u","yes","i","dudi","Training","alveolar","TrainingItems",0,36,36,93,NA,NA,NA,NA,NA,NA,NA,NA,NA,NA,51,FALSE,21,59.9492026648,NA,"American English","VSH_Exp2","2016_Mar_23_1907",NA
"Recordings/sisi.wav","no","s","s","i","no","i","sisi","Training","alveolar","TrainingItems",0,37,37,44,NA,NA,NA,NA,NA,NA,NA,NA,NA,NA,51,FALSE,21,59.9492026648,NA,"American English","VSH_Exp2","2016_Mar_23_1907",NA
"Recordings/viva.wav","yes","v","v","i","no","a","viva","Training","bilabial","TrainingItems",0,38,38,70,NA,NA,NA,NA,NA,NA,NA,NA,NA,NA,51,FALSE,21,59.9492026648,NA,"American English","VSH_Exp2","2016_Mar_23_1907",NA
"Recordings/sisu.wav","no","s","s","i","no","u","sisu","Training","alveolar","TrainingItems",0,39,39,29,NA,NA,NA,NA,NA,NA,NA,NA,NA,NA,51,FALSE,21,59.9492026648,NA,"American English","VSH_Exp2","2016_Mar_23_1907",NA
"Recordings/pitu.wav","no","p","t","i","yes","u","pitu","Training","bilabial","TrainingItems",0,40,40,40,NA,NA,NA,NA,NA,NA,NA,NA,NA,NA,51,FALSE,21,59.9492026648,NA,"American English","VSH_Exp2","2016_Mar_23_1907",NA
"Recordings/piti.wav","no","p","t","i","yes","i","piti","Training","bilabial","TrainingItems",0,41,41,26,NA,NA,NA,NA,NA,NA,NA,NA,NA,NA,51,FALSE,21,59.9492026648,NA,"American English","VSH_Exp2","2016_Mar_23_1907",NA
"Recordings/sufa.wav","no","s","f","u","no","a","sufa","Training","alveolar","TrainingItems",0,42,42,15,NA,NA,NA,NA,NA,NA,NA,NA,NA,NA,51,FALSE,21,59.9492026648,NA,"American English","VSH_Exp2","2016_Mar_23_1907",NA
"Recordings/dadi.wav","yes","d","d","a","yes","i","dadi","Training","alveolar","TrainingItems",0,43,43,52,NA,NA,NA,NA,NA,NA,NA,NA,NA,NA,51,FALSE,21,59.9492026648,NA,"American English","VSH_Exp2","2016_Mar_23_1907",NA
"Recordings/didu.wav","yes","d","d","i","yes","u","didu","Training","alveolar","TrainingItems",0,44,44,95,NA,NA,NA,NA,NA,NA,NA,NA,NA,NA,51,FALSE,21,59.9492026648,NA,"American English","VSH_Exp2","2016_Mar_23_1907",NA
"Recordings/dadu.wav","yes","d","d","a","yes","u","dadu","Training","alveolar","TrainingItems",0,45,45,65,NA,NA,NA,NA,NA,NA,NA,NA,NA,NA,51,FALSE,21,59.9492026648,NA,"American English","VSH_Exp2","2016_Mar_23_1907",NA
"Recordings/fisu.wav","no","f","s","i","no","u","fisu","Training","bilabial","TrainingItems",0,46,46,27,NA,NA,NA,NA,NA,NA,NA,NA,NA,NA,51,FALSE,21,59.9492026648,NA,"American English","VSH_Exp2","2016_Mar_23_1907",NA
"Recordings/duda.wav","yes","d","d","u","yes","a","duda","Training","alveolar","TrainingItems",0,47,47,25,NA,NA,NA,NA,NA,NA,NA,NA,NA,NA,51,FALSE,21,59.9492026648,NA,"American English","VSH_Exp2","2016_Mar_23_1907",NA
"Recordings/pipu.wav","no","p","p","i","yes","u","pipu","Training","bilabial","TrainingItems",0,48,48,10,NA,NA,NA,NA,NA,NA,NA,NA,NA,NA,51,FALSE,21,59.9492026648,NA,"American English","VSH_Exp2","2016_Mar_23_1907",NA
"Recordings/fufu.wav","no","f","f","u","no","u","fufu","Training","bilabial","TrainingItems",0,49,49,91,NA,NA,NA,NA,NA,NA,NA,NA,NA,NA,51,FALSE,21,59.9492026648,NA,"American English","VSH_Exp2","2016_Mar_23_1907",NA
"Recordings/pipa.wav","no","p","p","i","yes","a","pipa","Training","bilabial","TrainingItems",0,50,50,61,NA,NA,NA,NA,NA,NA,NA,NA,NA,NA,51,FALSE,21,59.9492026648,NA,"American English","VSH_Exp2","2016_Mar_23_1907",NA
"Recordings/sifu.wav","no","s","f","i","no","u","sifu","Training","alveolar","TrainingItems",0,51,51,83,NA,NA,NA,NA,NA,NA,NA,NA,NA,NA,51,FALSE,21,59.9492026648,NA,"American English","VSH_Exp2","2016_Mar_23_1907",NA
"Recordings/tapa.wav","no","t","p","a","yes","a","tapa","Training","alveolar","TrainingItems",0,52,52,47,NA,NA,NA,NA,NA,NA,NA,NA,NA,NA,51,FALSE,21,59.9492026648,NA,"American English","VSH_Exp2","2016_Mar_23_1907",NA
"Recordings/fusa.wav","no","f","s","u","no","a","fusa","Training","bilabial","TrainingItems",0,53,53,63,NA,NA,NA,NA,NA,NA,NA,NA,NA,NA,51,FALSE,21,59.9492026648,NA,"American English","VSH_Exp2","2016_Mar_23_1907",NA
"Recordings/zizu.wav","yes","z","z","i","no","u","zizu","Training","alveolar","TrainingItems",0,54,54,4,NA,NA,NA,NA,NA,NA,NA,NA,NA,NA,51,FALSE,21,59.9492026648,NA,"American English","VSH_Exp2","2016_Mar_23_1907",NA
"Recordings/pupu.wav","no","p","p","u","yes","u","pupu","Training","bilabial","TrainingItems",0,55,55,81,NA,NA,NA,NA,NA,NA,NA,NA,NA,NA,51,FALSE,21,59.9492026648,NA,"American English","VSH_Exp2","2016_Mar_23_1907",NA
"Recordings/tatu.wav","no","t","t","a","yes","u","tatu","Training","alveolar","TrainingItems",0,56,56,62,NA,NA,NA,NA,NA,NA,NA,NA,NA,NA,51,FALSE,21,59.9492026648,NA,"American English","VSH_Exp2","2016_Mar_23_1907",NA
"Recordings/susu.wav","no","s","s","u","no","u","susu","Training","alveolar","TrainingItems",0,57,57,6,NA,NA,NA,NA,NA,NA,NA,NA,NA,NA,51,FALSE,21,59.9492026648,NA,"American English","VSH_Exp2","2016_Mar_23_1907",NA
"Recordings/tati.wav","no","t","t","a","yes","i","tati","Training","alveolar","TrainingItems",0,58,58,24,NA,NA,NA,NA,NA,NA,NA,NA,NA,NA,51,FALSE,21,59.9492026648,NA,"American English","VSH_Exp2","2016_Mar_23_1907",NA
"Recordings/vavu.wav","yes","v","v","a","no","u","vavu","Training","bilabial","TrainingItems",0,59,59,42,NA,NA,NA,NA,NA,NA,NA,NA,NA,NA,51,FALSE,21,59.9492026648,NA,"American English","VSH_Exp2","2016_Mar_23_1907",NA
"Recordings/tuti.wav","no","t","t","u","yes","i","tuti","Training","alveolar","TrainingItems",0,60,60,31,NA,NA,NA,NA,NA,NA,NA,NA,NA,NA,51,FALSE,21,59.9492026648,NA,"American English","VSH_Exp2","2016_Mar_23_1907",NA
"Recordings/zivi.wav","yes","z","v","i","no","i","zivi","Training","alveolar","TrainingItems",0,61,61,41,NA,NA,NA,NA,NA,NA,NA,NA,NA,NA,51,FALSE,21,59.9492026648,NA,"American English","VSH_Exp2","2016_Mar_23_1907",NA
"Recordings/tuta.wav","no","t","t","u","yes","a","tuta","Training","alveolar","TrainingItems",0,62,62,85,NA,NA,NA,NA,NA,NA,NA,NA,NA,NA,51,FALSE,21,59.9492026648,NA,"American English","VSH_Exp2","2016_Mar_23_1907",NA
"Recordings/fisa.wav","no","f","s","i","no","a","fisa","Training","bilabial","TrainingItems",0,63,63,14,NA,NA,NA,NA,NA,NA,NA,NA,NA,NA,51,FALSE,21,59.9492026648,NA,"American English","VSH_Exp2","2016_Mar_23_1907",NA
"Recordings/vuzu.wav","yes","v","z","u","no","u","vuzu","Training","bilabial","TrainingItems",0,64,64,59,NA,NA,NA,NA,NA,NA,NA,NA,NA,NA,51,FALSE,21,59.9492026648,NA,"American English","VSH_Exp2","2016_Mar_23_1907",NA
"Recordings/fifi.wav","no","f","f","i","no","i","fifi","Training","bilabial","TrainingItems",0,65,65,96,NA,NA,NA,NA,NA,NA,NA,NA,NA,NA,51,FALSE,21,59.9492026648,NA,"American English","VSH_Exp2","2016_Mar_23_1907",NA
"Recordings/vuza.wav","yes","v","z","u","no","a","vuza","Training","bilabial","TrainingItems",0,66,66,9,NA,NA,NA,NA,NA,NA,NA,NA,NA,NA,51,FALSE,21,59.9492026648,NA,"American English","VSH_Exp2","2016_Mar_23_1907",NA
"Recordings/vizi.wav","yes","v","z","i","no","i","vizi","Training","bilabial","TrainingItems",0,67,67,30,NA,NA,NA,NA,NA,NA,NA,NA,NA,NA,51,FALSE,21,59.9492026648,NA,"American English","VSH_Exp2","2016_Mar_23_1907",NA
"Recordings/tata.wav","no","t","t","a","yes","a","tata","Training","alveolar","TrainingItems",0,68,68,51,NA,NA,NA,NA,NA,NA,NA,NA,NA,NA,51,FALSE,21,59.9492026648,NA,"American English","VSH_Exp2","2016_Mar_23_1907",NA
"Recordings/fifu.wav","no","f","f","i","no","u","fifu","Training","bilabial","TrainingItems",0,69,69,38,NA,NA,NA,NA,NA,NA,NA,NA,NA,NA,51,FALSE,21,59.9492026648,NA,"American English","VSH_Exp2","2016_Mar_23_1907",NA
"Recordings/vuvu.wav","yes","v","v","u","no","u","vuvu","Training","bilabial","TrainingItems",0,70,70,82,NA,NA,NA,NA,NA,NA,NA,NA,NA,NA,51,FALSE,21,59.9492026648,NA,"American English","VSH_Exp2","2016_Mar_23_1907",NA
"Recordings/susa.wav","no","s","s","u","no","a","susa","Training","alveolar","TrainingItems",0,71,71,99,NA,NA,NA,NA,NA,NA,NA,NA,NA,NA,51,FALSE,21,59.9492026648,NA,"American English","VSH_Exp2","2016_Mar_23_1907",NA
"Recordings/vazi.wav","yes","v","z","a","no","i","vazi","Training","bilabial","TrainingItems",0,72,72,90,NA,NA,NA,NA,NA,NA,NA,NA,NA,NA,51,FALSE,21,59.9492026648,NA,"American English","VSH_Exp2","2016_Mar_23_1907",NA
"Recordings/fasa.wav","no","f","s","a","no","a","fasa","Training","bilabial","TrainingItems",0,73,73,45,NA,NA,NA,NA,NA,NA,NA,NA,NA,NA,51,FALSE,21,59.9492026648,NA,"American English","VSH_Exp2","2016_Mar_23_1907",NA
"Recordings/fasu.wav","no","f","s","a","no","u","fasu","Training","bilabial","TrainingItems",0,74,74,36,NA,NA,NA,NA,NA,NA,NA,NA,NA,NA,51,FALSE,21,59.9492026648,NA,"American English","VSH_Exp2","2016_Mar_23_1907",NA
"Recordings/patu.wav","no","p","t","a","yes","u","patu","Training","bilabial","TrainingItems",0,75,75,97,NA,NA,NA,NA,NA,NA,NA,NA,NA,NA,51,FALSE,21,59.9492026648,NA,"American English","VSH_Exp2","2016_Mar_23_1907",NA
"Recordings/babu.wav","yes","b","b","a","yes","u","babu","Training","bilabial","TrainingItems",0,76,76,98,NA,NA,NA,NA,NA,NA,NA,NA,NA,NA,51,FALSE,21,59.9492026648,NA,"American English","VSH_Exp2","2016_Mar_23_1907",NA
"Recordings/papi.wav","no","p","p","a","yes","i","papi","Training","bilabial","TrainingItems",0,77,77,79,NA,NA,NA,NA,NA,NA,NA,NA,NA,NA,51,FALSE,21,59.9492026648,NA,"American English","VSH_Exp2","2016_Mar_23_1907",NA
"Recordings/pupi.wav","no","p","p","u","yes","i","pupi","Training","bilabial","TrainingItems",0,78,78,8,NA,NA,NA,NA,NA,NA,NA,NA,NA,NA,51,FALSE,21,59.9492026648,NA,"American English","VSH_Exp2","2016_Mar_23_1907",NA
"Recordings/bubi.wav","yes","b","b","u","yes","i","bubi","Training","bilabial","TrainingItems",0,79,79,72,NA,NA,NA,NA,NA,NA,NA,NA,NA,NA,51,FALSE,21,59.9492026648,NA,"American English","VSH_Exp2","2016_Mar_23_1907",NA
"Recordings/tupa.wav","no","t","p","u","yes","a","tupa","Training","alveolar","TrainingItems",0,80,80,86,NA,NA,NA,NA,NA,NA,NA,NA,NA,NA,51,FALSE,21,59.9492026648,NA,"American English","VSH_Exp2","2016_Mar_23_1907",NA
"Recordings/baba.wav","yes","b","b","a","yes","a","baba","Training","bilabial","TrainingItems",0,81,81,43,NA,NA,NA,NA,NA,NA,NA,NA,NA,NA,51,FALSE,21,59.9492026648,NA,"American English","VSH_Exp2","2016_Mar_23_1907",NA
"Recordings/fafi.wav","no","f","f","a","no","i","fafi","Training","bilabial","TrainingItems",0,82,82,71,NA,NA,NA,NA,NA,NA,NA,NA,NA,NA,51,FALSE,21,59.9492026648,NA,"American English","VSH_Exp2","2016_Mar_23_1907",NA
"Recordings/papa.wav","no","p","p","a","yes","a","papa","Training","bilabial","TrainingItems",0,83,83,73,NA,NA,NA,NA,NA,NA,NA,NA,NA,NA,51,FALSE,21,59.9492026648,NA,"American English","VSH_Exp2","2016_Mar_23_1907",NA
"Recordings/fifa.wav","no","f","f","i","no","a","fifa","Training","bilabial","TrainingItems",0,84,84,69,NA,NA,NA,NA,NA,NA,NA,NA,NA,NA,51,FALSE,21,59.9492026648,NA,"American English","VSH_Exp2","2016_Mar_23_1907",NA
"Recordings/tupi.wav","no","t","p","u","yes","i","tupi","Training","alveolar","TrainingItems",0,85,85,3,NA,NA,NA,NA,NA,NA,NA,NA,NA,NA,51,FALSE,21,59.9492026648,NA,"American English","VSH_Exp2","2016_Mar_23_1907",NA
"Recordings/vaza.wav","yes","v","z","a","no","a","vaza","Training","bilabial","TrainingItems",0,86,86,56,NA,NA,NA,NA,NA,NA,NA,NA,NA,NA,51,FALSE,21,59.9492026648,NA,"American English","VSH_Exp2","2016_Mar_23_1907",NA
"Recordings/tipu.wav","no","t","p","i","yes","u","tipu","Training","alveolar","TrainingItems",0,87,87,18,NA,NA,NA,NA,NA,NA,NA,NA,NA,NA,51,FALSE,21,59.9492026648,NA,"American English","VSH_Exp2","2016_Mar_23_1907",NA
"Recordings/vuvi.wav","yes","v","v","u","no","i","vuvi","Training","bilabial","TrainingItems",0,88,88,16,NA,NA,NA,NA,NA,NA,NA,NA,NA,NA,51,FALSE,21,59.9492026648,NA,"American English","VSH_Exp2","2016_Mar_23_1907",NA
"Recordings/vuzi.wav","yes","v","z","u","no","i","vuzi","Training","bilabial","TrainingItems",0,89,89,46,NA,NA,NA,NA,NA,NA,NA,NA,NA,NA,51,FALSE,21,59.9492026648,NA,"American English","VSH_Exp2","2016_Mar_23_1907",NA
"Recordings/zuza.wav","yes","z","z","u","no","a","zuza","Training","alveolar","TrainingItems",0,90,90,77,NA,NA,NA,NA,NA,NA,NA,NA,NA,NA,51,FALSE,21,59.9492026648,NA,"American English","VSH_Exp2","2016_Mar_23_1907",NA
"Recordings/zavu.wav","yes","z","v","a","no","u","zavu","Training","alveolar","TrainingItems",0,91,91,22,NA,NA,NA,NA,NA,NA,NA,NA,NA,NA,51,FALSE,21,59.9492026648,NA,"American English","VSH_Exp2","2016_Mar_23_1907",NA
"Recordings/fasi.wav","no","f","s","a","no","i","fasi","Training","bilabial","TrainingItems",0,92,92,67,NA,NA,NA,NA,NA,NA,NA,NA,NA,NA,51,FALSE,21,59.9492026648,NA,"American English","VSH_Exp2","2016_Mar_23_1907",NA
"Recordings/zazi.wav","yes","z","z","a","no","i","zazi","Training","alveolar","TrainingItems",0,93,93,53,NA,NA,NA,NA,NA,NA,NA,NA,NA,NA,51,FALSE,21,59.9492026648,NA,"American English","VSH_Exp2","2016_Mar_23_1907",NA
"Recordings/vava.wav","yes","v","v","a","no","a","vava","Training","bilabial","TrainingItems",0,94,94,89,NA,NA,NA,NA,NA,NA,NA,NA,NA,NA,51,FALSE,21,59.9492026648,NA,"American English","VSH_Exp2","2016_Mar_23_1907",NA
"Recordings/pipi.wav","no","p","p","i","yes","i","pipi","Training","bilabial","TrainingItems",0,95,95,84,NA,NA,NA,NA,NA,NA,NA,NA,NA,NA,51,FALSE,21,59.9492026648,NA,"American English","VSH_Exp2","2016_Mar_23_1907",NA
"Recordings/titu.wav","no","t","t","i","yes","u","titu","Training","alveolar","TrainingItems",0,96,96,28,NA,NA,NA,NA,NA,NA,NA,NA,NA,NA,51,FALSE,21,59.9492026648,NA,"American English","VSH_Exp2","2016_Mar_23_1907",NA
"Recordings/zavi.wav","yes","z","v","a","no","i","zavi","Training","alveolar","TrainingItems",0,97,97,0,NA,NA,NA,NA,NA,NA,NA,NA,NA,NA,51,FALSE,21,59.9492026648,NA,"American English","VSH_Exp2","2016_Mar_23_1907",NA
"Recordings/pati.wav","no","p","t","a","yes","i","pati","Training","bilabial","TrainingItems",0,98,98,75,NA,NA,NA,NA,NA,NA,NA,NA,NA,NA,51,FALSE,21,59.9492026648,NA,"American English","VSH_Exp2","2016_Mar_23_1907",NA
"Recordings/sufi.wav","no","s","f","u","no","i","sufi","Training","alveolar","TrainingItems",0,99,99,19,NA,NA,NA,NA,NA,NA,NA,NA,NA,NA,51,FALSE,21,59.9492026648,NA,"American English","VSH_Exp2","2016_Mar_23_1907",NA
"Recordings/pipu.wav","no","p","p","i","yes","u","pipu","Training","bilabial","TrainingItems",1,0,100,10,NA,NA,NA,NA,NA,NA,NA,NA,NA,NA,51,FALSE,21,59.9492026648,NA,"American English","VSH_Exp2","2016_Mar_23_1907",NA
"Recordings/pipi.wav","no","p","p","i","yes","i","pipi","Training","bilabial","TrainingItems",1,1,101,84,NA,NA,NA,NA,NA,NA,NA,NA,NA,NA,51,FALSE,21,59.9492026648,NA,"American English","VSH_Exp2","2016_Mar_23_1907",NA
"Recordings/papu.wav","no","p","p","a","yes","u","papu","Training","bilabial","TrainingItems",1,2,102,48,NA,NA,NA,NA,NA,NA,NA,NA,NA,NA,51,FALSE,21,59.9492026648,NA,"American English","VSH_Exp2","2016_Mar_23_1907",NA
"Recordings/sufa.wav","no","s","f","u","no","a","sufa","Training","alveolar","TrainingItems",1,3,103,15,NA,NA,NA,NA,NA,NA,NA,NA,NA,NA,51,FALSE,21,59.9492026648,NA,"American English","VSH_Exp2","2016_Mar_23_1907",NA
"Recordings/fisu.wav","no","f","s","i","no","u","fisu","Training","bilabial","TrainingItems",1,4,104,27,NA,NA,NA,NA,NA,NA,NA,NA,NA,NA,51,FALSE,21,59.9492026648,NA,"American English","VSH_Exp2","2016_Mar_23_1907",NA
"Recordings/zizi.wav","yes","z","z","i","no","i","zizi","Training","alveolar","TrainingItems",1,5,105,60,NA,NA,NA,NA,NA,NA,NA,NA,NA,NA,51,FALSE,21,59.9492026648,NA,"American English","VSH_Exp2","2016_Mar_23_1907",NA
"Recordings/fafi.wav","no","f","f","a","no","i","fafi","Training","bilabial","TrainingItems",1,6,106,71,NA,NA,NA,NA,NA,NA,NA,NA,NA,NA,51,FALSE,21,59.9492026648,NA,"American English","VSH_Exp2","2016_Mar_23_1907",NA
"Recordings/papi.wav","no","p","p","a","yes","i","papi","Training","bilabial","TrainingItems",1,7,107,79,NA,NA,NA,NA,NA,NA,NA,NA,NA,NA,51,FALSE,21,59.9492026648,NA,"American English","VSH_Exp2","2016_Mar_23_1907",NA
"Recordings/sifa.wav","no","s","f","i","no","a","sifa","Training","alveolar","TrainingItems",1,8,108,92,NA,NA,NA,NA,NA,NA,NA,NA,NA,NA,51,FALSE,21,59.9492026648,NA,"American English","VSH_Exp2","2016_Mar_23_1907",NA
"Recordings/zuzu.wav","yes","z","z","u","no","u","zuzu","Training","alveolar","TrainingItems",1,9,109,88,NA,NA,NA,NA,NA,NA,NA,NA,NA,NA,51,FALSE,21,59.9492026648,NA,"American English","VSH_Exp2","2016_Mar_23_1907",NA
"Recordings/fasu.wav","no","f","s","a","no","u","fasu","Training","bilabial","TrainingItems",1,10,110,36,NA,NA,NA,NA,NA,NA,NA,NA,NA,NA,51,FALSE,21,59.9492026648,NA,"American English","VSH_Exp2","2016_Mar_23_1907",NA
"Recordings/vavu.wav","yes","v","v","a","no","u","vavu","Training","bilabial","TrainingItems",1,11,111,42,NA,NA,NA,NA,NA,NA,NA,NA,NA,NA,51,FALSE,21,59.9492026648,NA,"American English","VSH_Exp2","2016_Mar_23_1907",NA
"Recordings/tatu.wav","no","t","t","a","yes","u","tatu","Training","alveolar","TrainingItems",1,12,112,62,NA,NA,NA,NA,NA,NA,NA,NA,NA,NA,51,FALSE,21,59.9492026648,NA,"American English","VSH_Exp2","2016_Mar_23_1907",NA
"Recordings/fifa.wav","no","f","f","i","no","a","fifa","Training","bilabial","TrainingItems",1,13,113,69,NA,NA,NA,NA,NA,NA,NA,NA,NA,NA,51,FALSE,21,59.9492026648,NA,"American English","VSH_Exp2","2016_Mar_23_1907",NA
"Recordings/zazi.wav","yes","z","z","a","no","i","zazi","Training","alveolar","TrainingItems",1,14,114,53,NA,NA,NA,NA,NA,NA,NA,NA,NA,NA,51,FALSE,21,59.9492026648,NA,"American English","VSH_Exp2","2016_Mar_23_1907",NA
"Recordings/susa.wav","no","s","s","u","no","a","susa","Training","alveolar","TrainingItems",1,15,115,99,NA,NA,NA,NA,NA,NA,NA,NA,NA,NA,51,FALSE,21,59.9492026648,NA,"American English","VSH_Exp2","2016_Mar_23_1907",NA
"Recordings/titu.wav","no","t","t","i","yes","u","titu","Training","alveolar","TrainingItems",1,16,116,28,NA,NA,NA,NA,NA,NA,NA,NA,NA,NA,51,FALSE,21,59.9492026648,NA,"American English","VSH_Exp2","2016_Mar_23_1907",NA
"Recordings/vuvu.wav","yes","v","v","u","no","u","vuvu","Training","bilabial","TrainingItems",1,17,117,82,NA,NA,NA,NA,NA,NA,NA,NA,NA,NA,51,FALSE,21,59.9492026648,NA,"American English","VSH_Exp2","2016_Mar_23_1907",NA
"Recordings/fasi.wav","no","f","s","a","no","i","fasi","Training","bilabial","TrainingItems",1,18,118,67,NA,NA,NA,NA,NA,NA,NA,NA,NA,NA,51,FALSE,21,59.9492026648,NA,"American English","VSH_Exp2","2016_Mar_23_1907",NA
"Recordings/vuzi.wav","yes","v","z","u","no","i","vuzi","Training","bilabial","TrainingItems",1,19,119,46,NA,NA,NA,NA,NA,NA,NA,NA,NA,NA,51,FALSE,21,59.9492026648,NA,"American English","VSH_Exp2","2016_Mar_23_1907",NA
"Recordings/papa.wav","no","p","p","a","yes","a","papa","Training","bilabial","TrainingItems",1,20,120,73,NA,NA,NA,NA,NA,NA,NA,NA,NA,NA,51,FALSE,21,59.9492026648,NA,"American English","VSH_Exp2","2016_Mar_23_1907",NA
"Recordings/viva.wav","yes","v","v","i","no","a","viva","Training","bilabial","TrainingItems",1,21,121,70,NA,NA,NA,NA,NA,NA,NA,NA,NA,NA,51,FALSE,21,59.9492026648,NA,"American English","VSH_Exp2","2016_Mar_23_1907",NA
"Recordings/didu.wav","yes","d","d","i","yes","u","didu","Training","alveolar","TrainingItems",1,22,122,95,NA,NA,NA,NA,NA,NA,NA,NA,NA,NA,51,FALSE,21,59.9492026648,NA,"American English","VSH_Exp2","2016_Mar_23_1907",NA
"Recordings/vivi.wav","yes","v","v","i","no","i","vivi","Training","bilabial","TrainingItems",1,23,123,35,NA,NA,NA,NA,NA,NA,NA,NA,NA,NA,51,FALSE,21,59.9492026648,NA,"American English","VSH_Exp2","2016_Mar_23_1907",NA
"Recordings/pupa.wav","no","p","p","u","yes","a","pupa","Training","bilabial","TrainingItems",1,24,124,66,NA,NA,NA,NA,NA,NA,NA,NA,NA,NA,51,FALSE,21,59.9492026648,NA,"American English","VSH_Exp2","2016_Mar_23_1907",NA
"Recordings/patu.wav","no","p","t","a","yes","u","patu","Training","bilabial","TrainingItems",1,25,125,97,NA,NA,NA,NA,NA,NA,NA,NA,NA,NA,51,FALSE,21,59.9492026648,NA,"American English","VSH_Exp2","2016_Mar_23_1907",NA
"Recordings/baba.wav","yes","b","b","a","yes","a","baba","Training","bilabial","TrainingItems",1,26,126,43,NA,NA,NA,NA,NA,NA,NA,NA,NA,NA,51,FALSE,21,59.9492026648,NA,"American English","VSH_Exp2","2016_Mar_23_1907",NA
"Recordings/zuzi.wav","yes","z","z","u","no","i","zuzi","Training","alveolar","TrainingItems",1,27,127,55,NA,NA,NA,NA,NA,NA,NA,NA,NA,NA,51,FALSE,21,59.9492026648,NA,"American English","VSH_Exp2","2016_Mar_23_1907",NA
"Recordings/tata.wav","no","t","t","a","yes","a","tata","Training","alveolar","TrainingItems",1,28,128,51,NA,NA,NA,NA,NA,NA,NA,NA,NA,NA,51,FALSE,21,59.9492026648,NA,"American English","VSH_Exp2","2016_Mar_23_1907",NA
"Recordings/tuti.wav","no","t","t","u","yes","i","tuti","Training","alveolar","TrainingItems",1,29,129,31,NA,NA,NA,NA,NA,NA,NA,NA,NA,NA,51,FALSE,21,59.9492026648,NA,"American English","VSH_Exp2","2016_Mar_23_1907",NA
"Recordings/tipa.wav","no","t","p","i","yes","a","tipa","Training","alveolar","TrainingItems",1,30,130,7,NA,NA,NA,NA,NA,NA,NA,NA,NA,NA,51,FALSE,21,59.9492026648,NA,"American English","VSH_Exp2","2016_Mar_23_1907",NA
"Recordings/tapu.wav","no","t","p","a","yes","u","tapu","Training","alveolar","TrainingItems",1,31,131,2,NA,NA,NA,NA,NA,NA,NA,NA,NA,NA,51,FALSE,21,59.9492026648,NA,"American English","VSH_Exp2","2016_Mar_23_1907",NA
"Recordings/bibu.wav","yes","b","b","i","yes","u","bibu","Training","bilabial","TrainingItems",1,32,132,74,NA,NA,NA,NA,NA,NA,NA,NA,NA,NA,51,FALSE,21,59.9492026648,NA,"American English","VSH_Exp2","2016_Mar_23_1907",NA
"Recordings/safa.wav","no","s","f","a","no","a","safa","Training","alveolar","TrainingItems",1,33,133,12,NA,NA,NA,NA,NA,NA,NA,NA,NA,NA,51,FALSE,21,59.9492026648,NA,"American English","VSH_Exp2","2016_Mar_23_1907",NA
"Recordings/fufu.wav","no","f","f","u","no","u","fufu","Training","bilabial","TrainingItems",1,34,134,91,NA,NA,NA,NA,NA,NA,NA,NA,NA,NA,51,FALSE,21,59.9492026648,NA,"American English","VSH_Exp2","2016_Mar_23_1907",NA
"Recordings/zavu.wav","yes","z","v","a","no","u","zavu","Training","alveolar","TrainingItems",1,35,135,22,NA,NA,NA,NA,NA,NA,NA,NA,NA,NA,51,FALSE,21,59.9492026648,NA,"American English","VSH_Exp2","2016_Mar_23_1907",NA
"Recordings/susu.wav","no","s","s","u","no","u","susu","Training","alveolar","TrainingItems",1,36,136,6,NA,NA,NA,NA,NA,NA,NA,NA,NA,NA,51,FALSE,21,59.9492026648,NA,"American English","VSH_Exp2","2016_Mar_23_1907",NA
"Recordings/dada.wav","yes","d","d","a","yes","a","dada","Training","alveolar","TrainingItems",1,37,137,23,NA,NA,NA,NA,NA,NA,NA,NA,NA,NA,51,FALSE,21,59.9492026648,NA,"American English","VSH_Exp2","2016_Mar_23_1907",NA
"Recordings/zuvi.wav","yes","z","v","u","no","i","zuvi","Training","alveolar","TrainingItems",1,38,138,58,NA,NA,NA,NA,NA,NA,NA,NA,NA,NA,51,FALSE,21,59.9492026648,NA,"American English","VSH_Exp2","2016_Mar_23_1907",NA
"Recordings/vivu.wav","yes","v","v","i","no","u","vivu","Training","bilabial","TrainingItems",1,39,139,64,NA,NA,NA,NA,NA,NA,NA,NA,NA,NA,51,FALSE,21,59.9492026648,NA,"American English","VSH_Exp2","2016_Mar_23_1907",NA
"Recordings/pitu.wav","no","p","t","i","yes","u","pitu","Training","bilabial","TrainingItems",1,40,140,40,NA,NA,NA,NA,NA,NA,NA,NA,NA,NA,51,FALSE,21,59.9492026648,NA,"American English","VSH_Exp2","2016_Mar_23_1907",NA
"Recordings/zuva.wav","yes","z","v","u","no","a","zuva","Training","alveolar","TrainingItems",1,41,141,33,NA,NA,NA,NA,NA,NA,NA,NA,NA,NA,51,FALSE,21,59.9492026648,NA,"American English","VSH_Exp2","2016_Mar_23_1907",NA
"Recordings/safu.wav","no","s","f","a","no","u","safu","Training","alveolar","TrainingItems",1,42,142,94,NA,NA,NA,NA,NA,NA,NA,NA,NA,NA,51,FALSE,21,59.9492026648,NA,"American English","VSH_Exp2","2016_Mar_23_1907",NA
"Recordings/tupi.wav","no","t","p","u","yes","i","tupi","Training","alveolar","TrainingItems",1,43,143,3,NA,NA,NA,NA,NA,NA,NA,NA,NA,NA,51,FALSE,21,59.9492026648,NA,"American English","VSH_Exp2","2016_Mar_23_1907",NA
"Recordings/pipa.wav","no","p","p","i","yes","a","pipa","Training","bilabial","TrainingItems",1,44,144,61,NA,NA,NA,NA,NA,NA,NA,NA,NA,NA,51,FALSE,21,59.9492026648,NA,"American English","VSH_Exp2","2016_Mar_23_1907",NA
"Recordings/zavi.wav","yes","z","v","a","no","i","zavi","Training","alveolar","TrainingItems",1,45,145,0,NA,NA,NA,NA,NA,NA,NA,NA,NA,NA,51,FALSE,21,59.9492026648,NA,"American English","VSH_Exp2","2016_Mar_23_1907",NA
"Recordings/dadu.wav","yes","d","d","a","yes","u","dadu","Training","alveolar","TrainingItems",1,46,146,65,NA,NA,NA,NA,NA,NA,NA,NA,NA,NA,51,FALSE,21,59.9492026648,NA,"American English","VSH_Exp2","2016_Mar_23_1907",NA
"Recordings/vazi.wav","yes","v","z","a","no","i","vazi","Training","bilabial","TrainingItems",1,47,147,90,NA,NA,NA,NA,NA,NA,NA,NA,NA,NA,51,FALSE,21,59.9492026648,NA,"American English","VSH_Exp2","2016_Mar_23_1907",NA
"Recordings/pupi.wav","no","p","p","u","yes","i","pupi","Training","bilabial","TrainingItems",1,48,148,8,NA,NA,NA,NA,NA,NA,NA,NA,NA,NA,51,FALSE,21,59.9492026648,NA,"American English","VSH_Exp2","2016_Mar_23_1907",NA
"Recordings/sisi.wav","no","s","s","i","no","i","sisi","Training","alveolar","TrainingItems",1,49,149,44,NA,NA,NA,NA,NA,NA,NA,NA,NA,NA,51,FALSE,21,59.9492026648,NA,"American English","VSH_Exp2","2016_Mar_23_1907",NA
"Recordings/vaza.wav","yes","v","z","a","no","a","vaza","Training","bilabial","TrainingItems",1,50,150,56,NA,NA,NA,NA,NA,NA,NA,NA,NA,NA,51,FALSE,21,59.9492026648,NA,"American English","VSH_Exp2","2016_Mar_23_1907",NA
"Recordings/zivi.wav","yes","z","v","i","no","i","zivi","Training","alveolar","TrainingItems",1,51,151,41,NA,NA,NA,NA,NA,NA,NA,NA,NA,NA,51,FALSE,21,59.9492026648,NA,"American English","VSH_Exp2","2016_Mar_23_1907",NA
"Recordings/dudi.wav","yes","d","d","u","yes","i","dudi","Training","alveolar","TrainingItems",1,52,152,93,NA,NA,NA,NA,NA,NA,NA,NA,NA,NA,51,FALSE,21,59.9492026648,NA,"American English","VSH_Exp2","2016_Mar_23_1907",NA
"Recordings/putu.wav","no","p","t","u","yes","u","putu","Training","bilabial","TrainingItems",1,53,153,87,NA,NA,NA,NA,NA,NA,NA,NA,NA,NA,51,FALSE,21,59.9492026648,NA,"American English","VSH_Exp2","2016_Mar_23_1907",NA
"Recordings/titi.wav","no","t","t","i","yes","i","titi","Training","alveolar","TrainingItems",1,54,154,34,NA,NA,NA,NA,NA,NA,NA,NA,NA,NA,51,FALSE,21,59.9492026648,NA,"American English","VSH_Exp2","2016_Mar_23_1907",NA
"Recordings/fusa.wav","no","f","s","u","no","a","fusa","Training","bilabial","TrainingItems",1,55,155,63,NA,NA,NA,NA,NA,NA,NA,NA,NA,NA,51,FALSE,21,59.9492026648,NA,"American English","VSH_Exp2","2016_Mar_23_1907",NA
"Recordings/duda.wav","yes","d","d","u","yes","a","duda","Training","alveolar","TrainingItems",1,56,156,25,NA,NA,NA,NA,NA,NA,NA,NA,NA,NA,51,FALSE,21,59.9492026648,NA,"American English","VSH_Exp2","2016_Mar_23_1907",NA
"Recordings/bubu.wav","yes","b","b","u","yes","u","bubu","Training","bilabial","TrainingItems",1,57,157,57,NA,NA,NA,NA,NA,NA,NA,NA,NA,NA,51,FALSE,21,59.9492026648,NA,"American English","VSH_Exp2","2016_Mar_23_1907",NA
"Recordings/zuza.wav","yes","z","z","u","no","a","zuza","Training","alveolar","TrainingItems",1,58,158,77,NA,NA,NA,NA,NA,NA,NA,NA,NA,NA,51,FALSE,21,59.9492026648,NA,"American English","VSH_Exp2","2016_Mar_23_1907",NA
"Recordings/fisa.wav","no","f","s","i","no","a","fisa","Training","bilabial","TrainingItems",1,59,159,14,NA,NA,NA,NA,NA,NA,NA,NA,NA,NA,51,FALSE,21,59.9492026648,NA,"American English","VSH_Exp2","2016_Mar_23_1907",NA
"Recordings/sifu.wav","no","s","f","i","no","u","sifu","Training","alveolar","TrainingItems",1,60,160,83,NA,NA,NA,NA,NA,NA,NA,NA,NA,NA,51,FALSE,21,59.9492026648,NA,"American English","VSH_Exp2","2016_Mar_23_1907",NA
"Recordings/vuzu.wav","yes","v","z","u","no","u","vuzu","Training","bilabial","TrainingItems",1,61,161,59,NA,NA,NA,NA,NA,NA,NA,NA,NA,NA,51,FALSE,21,59.9492026648,NA,"American English","VSH_Exp2","2016_Mar_23_1907",NA
"Recordings/fafa.wav","no","f","f","a","no","a","fafa","Training","bilabial","TrainingItems",1,62,162,76,NA,NA,NA,NA,NA,NA,NA,NA,NA,NA,51,FALSE,21,59.9492026648,NA,"American English","VSH_Exp2","2016_Mar_23_1907",NA
"Recordings/vuvi.wav","yes","v","v","u","no","i","vuvi","Training","bilabial","TrainingItems",1,63,163,16,NA,NA,NA,NA,NA,NA,NA,NA,NA,NA,51,FALSE,21,59.9492026648,NA,"American English","VSH_Exp2","2016_Mar_23_1907",NA
"Recordings/babi.wav","yes","b","b","a","yes","i","babi","Training","bilabial","TrainingItems",1,64,164,1,NA,NA,NA,NA,NA,NA,NA,NA,NA,NA,51,FALSE,21,59.9492026648,NA,"American English","VSH_Exp2","2016_Mar_23_1907",NA
"Recordings/sufu.wav","no","s","f","u","no","u","sufu","Training","alveolar","TrainingItems",1,65,165,49,NA,NA,NA,NA,NA,NA,NA,NA,NA,NA,51,FALSE,21,59.9492026648,NA,"American English","VSH_Exp2","2016_Mar_23_1907",NA
"Recordings/bubi.wav","yes","b","b","u","yes","i","bubi","Training","bilabial","TrainingItems",1,66,166,72,NA,NA,NA,NA,NA,NA,NA,NA,NA,NA,51,FALSE,21,59.9492026648,NA,"American English","VSH_Exp2","2016_Mar_23_1907",NA
"Recordings/zaza.wav","yes","z","z","a","no","a","zaza","Training","alveolar","TrainingItems",1,67,167,50,NA,NA,NA,NA,NA,NA,NA,NA,NA,NA,51,FALSE,21,59.9492026648,NA,"American English","VSH_Exp2","2016_Mar_23_1907",NA
"Recordings/vava.wav","yes","v","v","a","no","a","vava","Training","bilabial","TrainingItems",1,68,168,89,NA,NA,NA,NA,NA,NA,NA,NA,NA,NA,51,FALSE,21,59.9492026648,NA,"American English","VSH_Exp2","2016_Mar_23_1907",NA
"Recordings/pita.wav","no","p","t","i","yes","a","pita","Training","bilabial","TrainingItems",1,69,169,21,NA,NA,NA,NA,NA,NA,NA,NA,NA,NA,51,FALSE,21,59.9492026648,NA,"American English","VSH_Exp2","2016_Mar_23_1907",NA
"Recordings/puta.wav","no","p","t","u","yes","a","puta","Training","bilabial","TrainingItems",1,70,170,20,NA,NA,NA,NA,NA,NA,NA,NA,NA,NA,51,FALSE,21,59.9492026648,NA,"American English","VSH_Exp2","2016_Mar_23_1907",NA
"Recordings/tapa.wav","no","t","p","a","yes","a","tapa","Training","alveolar","TrainingItems",1,71,171,47,NA,NA,NA,NA,NA,NA,NA,NA,NA,NA,51,FALSE,21,59.9492026648,NA,"American English","VSH_Exp2","2016_Mar_23_1907",NA
"Recordings/pati.wav","no","p","t","a","yes","i","pati","Training","bilabial","TrainingItems",1,72,172,75,NA,NA,NA,NA,NA,NA,NA,NA,NA,NA,51,FALSE,21,59.9492026648,NA,"American English","VSH_Exp2","2016_Mar_23_1907",NA
"Recordings/fifu.wav","no","f","f","i","no","u","fifu","Training","bilabial","TrainingItems",1,73,173,38,NA,NA,NA,NA,NA,NA,NA,NA,NA,NA,51,FALSE,21,59.9492026648,NA,"American English","VSH_Exp2","2016_Mar_23_1907",NA
"Recordings/fusu.wav","no","f","s","u","no","u","fusu","Training","bilabial","TrainingItems",1,74,174,17,NA,NA,NA,NA,NA,NA,NA,NA,NA,NA,51,FALSE,21,59.9492026648,NA,"American English","VSH_Exp2","2016_Mar_23_1907",NA
"Recordings/sisu.wav","no","s","s","i","no","u","sisu","Training","alveolar","TrainingItems",1,75,175,29,NA,NA,NA,NA,NA,NA,NA,NA,NA,NA,51,FALSE,21,59.9492026648,NA,"American English","VSH_Exp2","2016_Mar_23_1907",NA
"Recordings/tupa.wav","no","t","p","u","yes","a","tupa","Training","alveolar","TrainingItems",1,76,176,86,NA,NA,NA,NA,NA,NA,NA,NA,NA,NA,51,FALSE,21,59.9492026648,NA,"American English","VSH_Exp2","2016_Mar_23_1907",NA
"Recordings/vuza.wav","yes","v","z","u","no","a","vuza","Training","bilabial","TrainingItems",1,77,177,9,NA,NA,NA,NA,NA,NA,NA,NA,NA,NA,51,FALSE,21,59.9492026648,NA,"American English","VSH_Exp2","2016_Mar_23_1907",NA
"Recordings/susi.wav","no","s","s","u","no","i","susi","Training","alveolar","TrainingItems",1,78,178,80,NA,NA,NA,NA,NA,NA,NA,NA,NA,NA,51,FALSE,21,59.9492026648,NA,"American English","VSH_Exp2","2016_Mar_23_1907",NA
"Recordings/dudu.wav","yes","d","d","u","yes","u","dudu","Training","alveolar","TrainingItems",1,79,179,11,NA,NA,NA,NA,NA,NA,NA,NA,NA,NA,51,FALSE,21,59.9492026648,NA,"American English","VSH_Exp2","2016_Mar_23_1907",NA
"Recordings/sasi.wav","no","s","s","a","no","i","sasi","Training","alveolar","TrainingItems",1,80,180,39,NA,NA,NA,NA,NA,NA,NA,NA,NA,NA,51,FALSE,21,59.9492026648,NA,"American English","VSH_Exp2","2016_Mar_23_1907",NA
"Recordings/vizu.wav","yes","v","z","i","no","u","vizu","Training","bilabial","TrainingItems",1,81,181,54,NA,NA,NA,NA,NA,NA,NA,NA,NA,NA,51,FALSE,21,59.9492026648,NA,"American English","VSH_Exp2","2016_Mar_23_1907",NA
"Recordings/dadi.wav","yes","d","d","a","yes","i","dadi","Training","alveolar","TrainingItems",1,82,182,52,NA,NA,NA,NA,NA,NA,NA,NA,NA,NA,51,FALSE,21,59.9492026648,NA,"American English","VSH_Exp2","2016_Mar_23_1907",NA
"Recordings/sasa.wav","no","s","s","a","no","a","sasa","Training","alveolar","TrainingItems",1,83,183,5,NA,NA,NA,NA,NA,NA,NA,NA,NA,NA,51,FALSE,21,59.9492026648,NA,"American English","VSH_Exp2","2016_Mar_23_1907",NA
"Recordings/piti.wav","no","p","t","i","yes","i","piti","Training","bilabial","TrainingItems",1,84,184,26,NA,NA,NA,NA,NA,NA,NA,NA,NA,NA,51,FALSE,21,59.9492026648,NA,"American English","VSH_Exp2","2016_Mar_23_1907",NA
"Recordings/fifi.wav","no","f","f","i","no","i","fifi","Training","bilabial","TrainingItems",1,85,185,96,NA,NA,NA,NA,NA,NA,NA,NA,NA,NA,51,FALSE,21,59.9492026648,NA,"American English","VSH_Exp2","2016_Mar_23_1907",NA
"Recordings/tipu.wav","no","t","p","i","yes","u","tipu","Training","alveolar","TrainingItems",1,86,186,18,NA,NA,NA,NA,NA,NA,NA,NA,NA,NA,51,FALSE,21,59.9492026648,NA,"American English","VSH_Exp2","2016_Mar_23_1907",NA
"Recordings/tipi.wav","no","t","p","i","yes","i","tipi","Training","alveolar","TrainingItems",1,87,187,13,NA,NA,NA,NA,NA,NA,NA,NA,NA,NA,51,FALSE,21,59.9492026648,NA,"American English","VSH_Exp2","2016_Mar_23_1907",NA
"Recordings/babu.wav","yes","b","b","a","yes","u","babu","Training","bilabial","TrainingItems",1,88,188,98,NA,NA,NA,NA,NA,NA,NA,NA,NA,NA,51,FALSE,21,59.9492026648,NA,"American English","VSH_Exp2","2016_Mar_23_1907",NA
"Recordings/zizu.wav","yes","z","z","i","no","u","zizu","Training","alveolar","TrainingItems",1,89,189,4,NA,NA,NA,NA,NA,NA,NA,NA,NA,NA,51,FALSE,21,59.9492026648,NA,"American English","VSH_Exp2","2016_Mar_23_1907",NA
"Recordings/vizi.wav","yes","v","z","i","no","i","vizi","Training","bilabial","TrainingItems",1,90,190,30,NA,NA,NA,NA,NA,NA,NA,NA,NA,NA,51,FALSE,21,59.9492026648,NA,"American English","VSH_Exp2","2016_Mar_23_1907",NA
"Recordings/tati.wav","no","t","t","a","yes","i","tati","Training","alveolar","TrainingItems",1,91,191,24,NA,NA,NA,NA,NA,NA,NA,NA,NA,NA,51,FALSE,21,59.9492026648,NA,"American English","VSH_Exp2","2016_Mar_23_1907",NA
"Recordings/fasa.wav","no","f","s","a","no","a","fasa","Training","bilabial","TrainingItems",1,92,192,45,NA,NA,NA,NA,NA,NA,NA,NA,NA,NA,51,FALSE,21,59.9492026648,NA,"American English","VSH_Exp2","2016_Mar_23_1907",NA
"Recordings/tapi.wav","no","t","p","a","yes","i","tapi","Training","alveolar","TrainingItems",1,93,193,68,NA,NA,NA,NA,NA,NA,NA,NA,NA,NA,51,FALSE,21,59.9492026648,NA,"American English","VSH_Exp2","2016_Mar_23_1907",NA
"Recordings/zuvu.wav","yes","z","v","u","no","u","zuvu","Training","alveolar","TrainingItems",1,94,194,32,NA,NA,NA,NA,NA,NA,NA,NA,NA,NA,51,FALSE,21,59.9492026648,NA,"American English","VSH_Exp2","2016_Mar_23_1907",NA
"Recordings/tuta.wav","no","t","t","u","yes","a","tuta","Training","alveolar","TrainingItems",1,95,195,85,NA,NA,NA,NA,NA,NA,NA,NA,NA,NA,51,FALSE,21,59.9492026648,NA,"American English","VSH_Exp2","2016_Mar_23_1907",NA
"Recordings/zivu.wav","yes","z","v","i","no","u","zivu","Training","alveolar","TrainingItems",1,96,196,37,NA,NA,NA,NA,NA,NA,NA,NA,NA,NA,51,FALSE,21,59.9492026648,NA,"American English","VSH_Exp2","2016_Mar_23_1907",NA
"Recordings/pupu.wav","no","p","p","u","yes","u","pupu","Training","bilabial","TrainingItems",1,97,197,81,NA,NA,NA,NA,NA,NA,NA,NA,NA,NA,51,FALSE,21,59.9492026648,NA,"American English","VSH_Exp2","2016_Mar_23_1907",NA
"Recordings/sufi.wav","no","s","f","u","no","i","sufi","Training","alveolar","TrainingItems",1,98,198,19,NA,NA,NA,NA,NA,NA,NA,NA,NA,NA,51,FALSE,21,59.9492026648,NA,"American English","VSH_Exp2","2016_Mar_23_1907",NA
"Recordings/pata.wav","no","p","t","a","yes","a","pata","Training","bilabial","TrainingItems",1,99,199,78,NA,NA,NA,NA,NA,NA,NA,NA,NA,NA,51,FALSE,21,59.9492026648,NA,"American English","VSH_Exp2","2016_Mar_23_1907",NA
NA,NA,NA,NA,NA,NA,NA,NA,NA,NA,NA,NA,NA,NA,NA,NA,NA,NA,NA,NA,NA,"space",4.88996219635,NA,NA,51,FALSE,21,59.9492026648,NA,"American English","VSH_Exp2","2016_Mar_23_1907",NA
"Recordings/bida.wav","yes","b","d","i","yes","a","bida","Test","bilabial","NewConsTestStimuli",NA,NA,NA,NA,0,0,0,11,NA,NA,NA,NA,"None","None",51,FALSE,21,59.9492026648,NA,"American English","VSH_Exp2","2016_Mar_23_1907",NA
"Recordings/vuva.wav","yes","v","v","u","no","a","vuva","Test","bilabial","NewWordTestStimuli",NA,NA,NA,NA,0,1,1,24,NA,NA,NA,NA,"Yes","1.536",51,FALSE,21,59.9492026648,NA,"American English","VSH_Exp2","2016_Mar_23_1907",NA
"Recordings/pasa.wav","no","p","s","a","yes","a","pasa","Controls","bilabial","VoicingControls",NA,NA,NA,NA,0,2,2,45,NA,NA,NA,NA,"Yes","5.041",51,FALSE,21,59.9492026648,NA,"American English","VSH_Exp2","2016_Mar_23_1907",NA
"Recordings/zava.wav","yes","z","v","a","no","a","zava","Test","alveolar","NewWordTestStimuli",NA,NA,NA,NA,0,3,3,20,NA,NA,NA,NA,"Yes","2.939",51,FALSE,21,59.9492026648,NA,"American English","VSH_Exp2","2016_Mar_23_1907",NA
"Recordings/tita.wav","no","t","t","i","yes","a","tita","Test","alveolar","NewWordTestStimuli",NA,NA,NA,NA,0,4,4,29,NA,NA,NA,NA,"Yes","8.01",51,FALSE,21,59.9492026648,NA,"American English","VSH_Exp2","2016_Mar_23_1907",NA
"Recordings/sifu.wav","no","s","f","i","no","u","sifu","Test","alveolar","OldTestStimuli",NA,NA,NA,NA,0,5,5,9,NA,NA,NA,NA,"Yes","0.935",51,FALSE,21,59.9492026648,NA,"American English","VSH_Exp2","2016_Mar_23_1907",NA
"Recordings/dabu.wav","yes","d","b","a","yes","u","dabu","Test","alveolar","NewConsTestStimuli",NA,NA,NA,NA,0,6,6,12,NA,NA,NA,NA,"Yes","1.155",51,FALSE,21,59.9492026648,NA,"American English","VSH_Exp2","2016_Mar_23_1907",NA
"Recordings/fafu.wav","no","f","f","a","no","u","fafu","Test","bilabial","NewWordTestStimuli",NA,NA,NA,NA,0,7,7,28,NA,NA,NA,NA,"Yes","0.637",51,FALSE,21,59.9492026648,NA,"American English","VSH_Exp2","2016_Mar_23_1907",NA
"Recordings/puzi.wav","no","p","z","u","yes","i","puzi","Controls","bilabial","NoPatternControls",NA,NA,NA,NA,0,8,8,58,NA,NA,NA,NA,"Yes","2.489",51,FALSE,21,59.9492026648,NA,"American English","VSH_Exp2","2016_Mar_23_1907",NA
"Recordings/zata.wav","yes","z","t","a","no","a","zata","Controls","alveolar","NoPatternControls",NA,NA,NA,NA,0,9,9,54,NA,NA,NA,NA,"Yes","1.337",51,FALSE,21,59.9492026648,NA,"American English","VSH_Exp2","2016_Mar_23_1907",NA
"Recordings/bibi.wav","yes","b","b","i","yes","i","bibi","Test","bilabial","NewWordTestStimuli",NA,NA,NA,NA,0,10,10,21,NA,NA,NA,NA,"Yes","5.042",51,FALSE,21,59.9492026648,NA,"American English","VSH_Exp2","2016_Mar_23_1907",NA
"Recordings/puti.wav","no","p","t","u","yes","i","puti","Test","bilabial","NewWordTestStimuli",NA,NA,NA,NA,0,11,11,25,NA,NA,NA,NA,"Yes","0.703",51,FALSE,21,59.9492026648,NA,"American English","VSH_Exp2","2016_Mar_23_1907",NA
"Recordings/baba.wav","yes","b","b","a","yes","a","baba","Test","bilabial","OldTestStimuli",NA,NA,NA,NA,0,12,12,6,NA,NA,NA,NA,"Yes","1.269",51,FALSE,21,59.9492026648,NA,"American English","VSH_Exp2","2016_Mar_23_1907",NA
"Recordings/sisa.wav","no","s","s","i","no","a","sisa","Test","alveolar","NewWordTestStimuli",NA,NA,NA,NA,0,13,13,23,NA,NA,NA,NA,"Yes","0.837",51,FALSE,21,59.9492026648,NA,"American English","VSH_Exp2","2016_Mar_23_1907",NA
"Recordings/pizu.wav","no","p","z","i","yes","u","pizu","Controls","bilabial","NoPatternControls",NA,NA,NA,NA,0,14,14,56,NA,NA,NA,NA,"Yes","0.853",51,FALSE,21,59.9492026648,NA,"American English","VSH_Exp2","2016_Mar_23_1907",NA
"Recordings/siza.wav","no","s","z","i","no","a","siza","Controls","alveolar","StopControls",NA,NA,NA,NA,0,15,15,33,NA,NA,NA,NA,"No","7.693",51,FALSE,21,59.9492026648,NA,"American English","VSH_Exp2","2016_Mar_23_1907",NA
"Recordings/budi.wav","yes","b","d","u","yes","i","budi","Test","bilabial","NewConsTestStimuli",NA,NA,NA,NA,0,16,16,17,NA,NA,NA,NA,"Yes","1.571",51,FALSE,21,59.9492026648,NA,"American English","VSH_Exp2","2016_Mar_23_1907",NA
"Recordings/zudu.wav","yes","z","d","u","no","u","zudu","Controls","alveolar","VoicingControls",NA,NA,NA,NA,0,17,17,49,NA,NA,NA,NA,"Yes","1.02",51,FALSE,21,59.9492026648,NA,"American English","VSH_Exp2","2016_Mar_23_1907",NA
"Recordings/zizi.wav","yes","z","z","i","no","i","zizi","Test","alveolar","OldTestStimuli",NA,NA,NA,NA,0,18,18,3,NA,NA,NA,NA,"Yes","0.753",51,FALSE,21,59.9492026648,NA,"American English","VSH_Exp2","2016_Mar_23_1907",NA
"Recordings/pidi.wav","no","p","d","i","yes","i","pidi","Controls","bilabial","StopControls",NA,NA,NA,NA,0,19,19,38,NA,NA,NA,NA,"Yes","4.607",51,FALSE,21,59.9492026648,NA,"American English","VSH_Exp2","2016_Mar_23_1907",NA
"Recordings/zusu.wav","yes","z","s","u","no","u","zusu","Controls","alveolar","StopControls",NA,NA,NA,NA,0,20,20,39,NA,NA,NA,NA,"No","5.741",51,FALSE,21,59.9492026648,NA,"American English","VSH_Exp2","2016_Mar_23_1907",NA
"Recordings/budu.wav","yes","b","d","u","yes","u","budu","Test","bilabial","NewConsTestStimuli",NA,NA,NA,NA,0,21,21,15,NA,NA,NA,NA,"Yes","0.919",51,FALSE,21,59.9492026648,NA,"American English","VSH_Exp2","2016_Mar_23_1907",NA
"Recordings/vatu.wav","yes","v","t","a","no","u","vatu","Controls","bilabial","NoPatternControls",NA,NA,NA,NA,0,22,22,50,NA,NA,NA,NA,"Yes","0.819",51,FALSE,21,59.9492026648,NA,"American English","VSH_Exp2","2016_Mar_23_1907",NA
"Recordings/viva.wav","yes","v","v","i","no","a","viva","Test","bilabial","OldTestStimuli",NA,NA,NA,NA,0,23,23,2,NA,NA,NA,NA,"Yes","0.638",51,FALSE,21,59.9492026648,NA,"American English","VSH_Exp2","2016_Mar_23_1907",NA
"Recordings/pisi.wav","no","p","s","i","yes","i","pisi","Controls","bilabial","VoicingControls",NA,NA,NA,NA,0,24,24,48,NA,NA,NA,NA,"Yes","0.802",51,FALSE,21,59.9492026648,NA,"American English","VSH_Exp2","2016_Mar_23_1907",NA
"Recordings/pudi.wav","no","p","d","u","yes","i","pudi","Controls","bilabial","StopControls",NA,NA,NA,NA,0,25,25,36,NA,NA,NA,NA,"Yes","0.686",51,FALSE,21,59.9492026648,NA,"American English","VSH_Exp2","2016_Mar_23_1907",NA
"Recordings/badu.wav","yes","b","d","a","yes","u","badu","Test","bilabial","NewConsTestStimuli",NA,NA,NA,NA,0,26,26,16,NA,NA,NA,NA,"Yes","2.104",51,FALSE,21,59.9492026648,NA,"American English","VSH_Exp2","2016_Mar_23_1907",NA
"Recordings/bipi.wav","yes","b","p","i","yes","i","bipi","Controls","bilabial","StopControls",NA,NA,NA,NA,0,27,27,31,NA,NA,NA,NA,"Yes","1.82",51,FALSE,21,59.9492026648,NA,"American English","VSH_Exp2","2016_Mar_23_1907",NA
"Recordings/pusi.wav","no","p","s","u","yes","i","pusi","Controls","bilabial","VoicingControls",NA,NA,NA,NA,0,28,28,46,NA,NA,NA,NA,"Yes","0.62",51,FALSE,21,59.9492026648,NA,"American English","VSH_Exp2","2016_Mar_23_1907",NA
"Recordings/sasi.wav","no","s","s","a","no","i","sasi","Test","alveolar","OldTestStimuli",NA,NA,NA,NA,0,29,29,8,NA,NA,NA,NA,"Yes","1.804",51,FALSE,21,59.9492026648,NA,"American English","VSH_Exp2","2016_Mar_23_1907",NA
"Recordings/padi.wav","no","p","d","a","yes","i","padi","Controls","bilabial","StopControls",NA,NA,NA,NA,0,30,30,35,NA,NA,NA,NA,"No","3.106",51,FALSE,21,59.9492026648,NA,"American English","VSH_Exp2","2016_Mar_23_1907",NA
"Recordings/ziza.wav","yes","z","z","i","no","a","ziza","Test","alveolar","NewWordTestStimuli",NA,NA,NA,NA,0,31,31,27,NA,NA,NA,NA,"Yes","1.537",51,FALSE,21,59.9492026648,NA,"American English","VSH_Exp2","2016_Mar_23_1907",NA
"Recordings/tusi.wav","no","t","s","u","yes","i","tusi","Controls","alveolar","VoicingControls",NA,NA,NA,NA,0,32,32,42,NA,NA,NA,NA,"Yes","1.204",51,FALSE,21,59.9492026648,NA,"American English","VSH_Exp2","2016_Mar_23_1907",NA
"Recordings/visi.wav","yes","v","s","i","no","i","visi","Controls","bilabial","StopControls",NA,NA,NA,NA,0,33,33,30,NA,NA,NA,NA,"Yes","1.655",51,FALSE,21,59.9492026648,NA,"American English","VSH_Exp2","2016_Mar_23_1907",NA
"Recordings/fifa.wav","no","f","f","i","no","a","fifa","Test","bilabial","OldTestStimuli",NA,NA,NA,NA,0,34,34,7,NA,NA,NA,NA,"Yes","0.787",51,FALSE,21,59.9492026648,NA,"American English","VSH_Exp2","2016_Mar_23_1907",NA
"Recordings/taza.wav","no","t","z","a","yes","a","taza","Controls","alveolar","NoPatternControls",NA,NA,NA,NA,0,35,35,52,NA,NA,NA,NA,"Yes","0.837",51,FALSE,21,59.9492026648,NA,"American English","VSH_Exp2","2016_Mar_23_1907",NA
"Recordings/diba.wav","yes","d","b","i","yes","a","diba","Test","alveolar","NewConsTestStimuli",NA,NA,NA,NA,0,36,36,14,NA,NA,NA,NA,"Yes","1.887",51,FALSE,21,59.9492026648,NA,"American English","VSH_Exp2","2016_Mar_23_1907",NA
"Recordings/zisu.wav","yes","z","s","i","no","u","zisu","Controls","alveolar","StopControls",NA,NA,NA,NA,0,37,37,34,NA,NA,NA,NA,"Yes","0.702",51,FALSE,21,59.9492026648,NA,"American English","VSH_Exp2","2016_Mar_23_1907",NA
"Recordings/tiba.wav","no","t","b","i","yes","a","tiba","Controls","alveolar","StopControls",NA,NA,NA,NA,0,38,38,37,NA,NA,NA,NA,"Yes","0.736",51,FALSE,21,59.9492026648,NA,"American English","VSH_Exp2","2016_Mar_23_1907",NA
"Recordings/suda.wav","no","s","d","u","no","a","suda","Controls","alveolar","NoPatternControls",NA,NA,NA,NA,0,39,39,53,NA,NA,NA,NA,"Yes","1.102",51,FALSE,21,59.9492026648,NA,"American English","VSH_Exp2","2016_Mar_23_1907",NA
"Recordings/dabi.wav","yes","d","b","a","yes","i","dabi","Test","alveolar","NewConsTestStimuli",NA,NA,NA,NA,0,40,40,19,NA,NA,NA,NA,"Yes","1.671",51,FALSE,21,59.9492026648,NA,"American English","VSH_Exp2","2016_Mar_23_1907",NA
"Recordings/paza.wav","no","p","z","a","yes","a","paza","Controls","bilabial","NoPatternControls",NA,NA,NA,NA,0,41,41,55,NA,NA,NA,NA,"Yes","0.936",51,FALSE,21,59.9492026648,NA,"American English","VSH_Exp2","2016_Mar_23_1907",NA
"Recordings/vidi.wav","yes","v","d","i","no","i","vidi","Controls","bilabial","VoicingControls",NA,NA,NA,NA,0,42,42,40,NA,NA,NA,NA,"Yes","2.855",51,FALSE,21,59.9492026648,NA,"American English","VSH_Exp2","2016_Mar_23_1907",NA
"Recordings/fusi.wav","no","f","s","u","no","i","fusi","Test","bilabial","NewWordTestStimuli",NA,NA,NA,NA,0,43,43,26,NA,NA,NA,NA,"Yes","0.687",51,FALSE,21,59.9492026648,NA,"American English","VSH_Exp2","2016_Mar_23_1907",NA
"Recordings/safu.wav","no","s","f","a","no","u","safu","Test","alveolar","OldTestStimuli",NA,NA,NA,NA,0,44,44,4,NA,NA,NA,NA,"Yes","0.636",51,FALSE,21,59.9492026648,NA,"American English","VSH_Exp2","2016_Mar_23_1907",NA
"Recordings/zupu.wav","yes","z","p","u","no","u","zupu","Controls","alveolar","NoPatternControls",NA,NA,NA,NA,0,45,45,59,NA,NA,NA,NA,"Yes","0.586",51,FALSE,21,59.9492026648,NA,"American English","VSH_Exp2","2016_Mar_23_1907",NA
"Recordings/papu.wav","no","p","p","a","yes","u","papu","Test","bilabial","OldTestStimuli",NA,NA,NA,NA,0,46,46,5,NA,NA,NA,NA,"Yes","0.702",51,FALSE,21,59.9492026648,NA,"American English","VSH_Exp2","2016_Mar_23_1907",NA
"Recordings/tafi.wav","no","t","f","a","yes","i","tafi","Controls","alveolar","VoicingControls",NA,NA,NA,NA,0,47,47,47,NA,NA,NA,NA,"Yes","1.07",51,FALSE,21,59.9492026648,NA,"American English","VSH_Exp2","2016_Mar_23_1907",NA
"Recordings/badi.wav","yes","b","d","a","yes","i","badi","Test","bilabial","NewConsTestStimuli",NA,NA,NA,NA,0,48,48,18,NA,NA,NA,NA,"Yes","0.903",51,FALSE,21,59.9492026648,NA,"American English","VSH_Exp2","2016_Mar_23_1907",NA
"Recordings/tabi.wav","no","t","b","a","yes","i","tabi","Controls","alveolar","StopControls",NA,NA,NA,NA,0,49,49,32,NA,NA,NA,NA,"Yes","2.571",51,FALSE,21,59.9492026648,NA,"American English","VSH_Exp2","2016_Mar_23_1907",NA
"Recordings/tutu.wav","no","t","t","u","yes","u","tutu","Test","alveolar","NewWordTestStimuli",NA,NA,NA,NA,0,50,50,22,NA,NA,NA,NA,"Yes","3.439",51,FALSE,21,59.9492026648,NA,"American English","VSH_Exp2","2016_Mar_23_1907",NA
"Recordings/sasa.wav","no","s","s","a","no","a","sasa","Test","alveolar","OldTestStimuli",NA,NA,NA,NA,0,51,51,1,NA,NA,NA,NA,"Yes","1.704",51,FALSE,21,59.9492026648,NA,"American English","VSH_Exp2","2016_Mar_23_1907",NA
"Recordings/dibu.wav","yes","d","b","i","yes","u","dibu","Test","alveolar","NewConsTestStimuli",NA,NA,NA,NA,0,52,52,10,NA,NA,NA,NA,"Yes","2.489",51,FALSE,21,59.9492026648,NA,"American English","VSH_Exp2","2016_Mar_23_1907",NA
"Recordings/bivi.wav","yes","b","v","i","yes","i","bivi","Controls","bilabial","VoicingControls",NA,NA,NA,NA,0,53,53,41,NA,NA,NA,NA,"Yes","1.021",51,FALSE,21,59.9492026648,NA,"American English","VSH_Exp2","2016_Mar_23_1907",NA
"Recordings/tuva.wav","no","t","v","u","yes","a","tuva","Controls","alveolar","NoPatternControls",NA,NA,NA,NA,0,54,54,57,NA,NA,NA,NA,"Yes","0.67",51,FALSE,21,59.9492026648,NA,"American English","VSH_Exp2","2016_Mar_23_1907",NA
"Recordings/tupa.wav","no","t","p","u","yes","a","tupa","Test","alveolar","OldTestStimuli",NA,NA,NA,NA,0,55,55,0,NA,NA,NA,NA,"Yes","1.169",51,FALSE,21,59.9492026648,NA,"American English","VSH_Exp2","2016_Mar_23_1907",NA
"Recordings/zidu.wav","yes","z","d","i","no","u","zidu","Controls","alveolar","VoicingControls",NA,NA,NA,NA,0,56,56,44,NA,NA,NA,NA,"Yes","0.652",51,FALSE,21,59.9492026648,NA,"American English","VSH_Exp2","2016_Mar_23_1907",NA
"Recordings/siti.wav","no","s","t","i","no","i","siti","Controls","alveolar","VoicingControls",NA,NA,NA,NA,0,57,57,43,NA,NA,NA,NA,"No","2.756",51,FALSE,21,59.9492026648,NA,"American English","VSH_Exp2","2016_Mar_23_1907",NA
"Recordings/bisu.wav","yes","b","s","i","yes","u","bisu","Controls","bilabial","NoPatternControls",NA,NA,NA,NA,0,58,58,51,NA,NA,NA,NA,"Yes","1.019",51,FALSE,21,59.9492026648,NA,"American English","VSH_Exp2","2016_Mar_23_1907",NA
"Recordings/dubu.wav","yes","d","b","u","yes","u","dubu","Test","alveolar","NewConsTestStimuli",NA,NA,NA,NA,0,59,59,13,NA,NA,NA,NA,"Yes","0.619",51,FALSE,21,59.9492026648,NA,"American English","VSH_Exp2","2016_Mar_23_1907",NA
