SOUND,VOICING,SEGMENT,SEGMENT3,SEGMENT2,STOP,SEGMENT4,STIMULUS,GENERAL_TYPE,PLACE,TYPE,trials.thisRepN,trials.thisTrialN,trials.thisN,trials.thisIndex,trials_2.thisRepN,trials_2.thisTrialN,trials_2.thisN,trials_2.thisIndex,SpaceBar.keys,SpaceBar.rt,key_resp_2.keys,key_resp_2.rt,rating.response,rating.rt,participant,Gender,Age,frameRate,OtherLanguages,NativeLanguage,expName,date,
,,,,,,,,,,,,,,,,,,,space,199.976690054,,,,,12,m,22,59.8179634843,none,American English,VSH_Exp2,2015_Jun_15_1705,
Recordings/fasu.wav,no,f,s,a,no,u,fasu,Training,bilabial,TrainingItems,0,0,0,92,,,,,,,,,,,12,m,22,59.8179634843,none,American English,VSH_Exp2,2015_Jun_15_1705,
Recordings/dabu.wav,yes,d,b,a,yes,u,dabu,Training,alveolar,TrainingItems,0,1,1,4,,,,,,,,,,,12,m,22,59.8179634843,none,American English,VSH_Exp2,2015_Jun_15_1705,
Recordings/budi.wav,yes,b,d,u,yes,i,budi,Training,bilabial,TrainingItems,0,2,2,61,,,,,,,,,,,12,m,22,59.8179634843,none,American English,VSH_Exp2,2015_Jun_15_1705,
Recordings/fufa.wav,no,f,f,u,no,a,fufa,Training,bilabial,TrainingItems,0,3,3,16,,,,,,,,,,,12,m,22,59.8179634843,none,American English,VSH_Exp2,2015_Jun_15_1705,
Recordings/ziza.wav,yes,z,z,i,no,a,ziza,Training,alveolar,TrainingItems,0,4,4,37,,,,,,,,,,,12,m,22,59.8179634843,none,American English,VSH_Exp2,2015_Jun_15_1705,
Recordings/fafa.wav,no,f,f,a,no,a,fafa,Training,bilabial,TrainingItems,0,5,5,5,,,,,,,,,,,12,m,22,59.8179634843,none,American English,VSH_Exp2,2015_Jun_15_1705,
Recordings/buda.wav,yes,b,d,u,yes,a,buda,Training,bilabial,TrainingItems,0,6,6,23,,,,,,,,,,,12,m,22,59.8179634843,none,American English,VSH_Exp2,2015_Jun_15_1705,
Recordings/bidu.wav,yes,b,d,i,yes,u,bidu,Training,bilabial,TrainingItems,0,7,7,74,,,,,,,,,,,12,m,22,59.8179634843,none,American English,VSH_Exp2,2015_Jun_15_1705,
Recordings/zizi.wav,yes,z,z,i,no,i,zizi,Training,alveolar,TrainingItems,0,8,8,79,,,,,,,,,,,12,m,22,59.8179634843,none,American English,VSH_Exp2,2015_Jun_15_1705,
Recordings/safu.wav,no,s,f,a,no,u,safu,Training,alveolar,TrainingItems,0,9,9,6,,,,,,,,,,,12,m,22,59.8179634843,none,American English,VSH_Exp2,2015_Jun_15_1705,
Recordings/sufu.wav,no,s,f,u,no,u,sufu,Training,alveolar,TrainingItems,0,10,10,62,,,,,,,,,,,12,m,22,59.8179634843,none,American English,VSH_Exp2,2015_Jun_15_1705,
Recordings/puti.wav,no,p,t,u,yes,i,puti,Training,bilabial,TrainingItems,0,11,11,18,,,,,,,,,,,12,m,22,59.8179634843,none,American English,VSH_Exp2,2015_Jun_15_1705,
Recordings/viva.wav,yes,v,v,i,no,a,viva,Training,bilabial,TrainingItems,0,12,12,47,,,,,,,,,,,12,m,22,59.8179634843,none,American English,VSH_Exp2,2015_Jun_15_1705,
Recordings/vuvi.wav,yes,v,v,u,no,i,vuvi,Training,bilabial,TrainingItems,0,13,13,17,,,,,,,,,,,12,m,22,59.8179634843,none,American English,VSH_Exp2,2015_Jun_15_1705,
Recordings/pita.wav,no,p,t,i,yes,a,pita,Training,bilabial,TrainingItems,0,14,14,44,,,,,,,,,,,12,m,22,59.8179634843,none,American English,VSH_Exp2,2015_Jun_15_1705,
Recordings/sifa.wav,no,s,f,i,no,a,sifa,Training,alveolar,TrainingItems,0,15,15,27,,,,,,,,,,,12,m,22,59.8179634843,none,American English,VSH_Exp2,2015_Jun_15_1705,
Recordings/fifa.wav,no,f,f,i,no,a,fifa,Training,bilabial,TrainingItems,0,16,16,80,,,,,,,,,,,12,m,22,59.8179634843,none,American English,VSH_Exp2,2015_Jun_15_1705,
Recordings/vuva.wav,yes,v,v,u,no,a,vuva,Training,bilabial,TrainingItems,0,17,17,89,,,,,,,,,,,12,m,22,59.8179634843,none,American English,VSH_Exp2,2015_Jun_15_1705,
Recordings/papa.wav,no,p,p,a,yes,a,papa,Training,bilabial,TrainingItems,0,18,18,51,,,,,,,,,,,12,m,22,59.8179634843,none,American English,VSH_Exp2,2015_Jun_15_1705,
Recordings/dida.wav,yes,d,d,i,yes,a,dida,Training,alveolar,TrainingItems,0,19,19,31,,,,,,,,,,,12,m,22,59.8179634843,none,American English,VSH_Exp2,2015_Jun_15_1705,
Recordings/tipu.wav,no,t,p,i,yes,u,tipu,Training,alveolar,TrainingItems,0,20,20,97,,,,,,,,,,,12,m,22,59.8179634843,none,American English,VSH_Exp2,2015_Jun_15_1705,
Recordings/susu.wav,no,s,s,u,no,u,susu,Training,alveolar,TrainingItems,0,21,21,94,,,,,,,,,,,12,m,22,59.8179634843,none,American English,VSH_Exp2,2015_Jun_15_1705,
Recordings/badi.wav,yes,b,d,a,yes,i,badi,Training,bilabial,TrainingItems,0,22,22,65,,,,,,,,,,,12,m,22,59.8179634843,none,American English,VSH_Exp2,2015_Jun_15_1705,
Recordings/sisu.wav,no,s,s,i,no,u,sisu,Training,alveolar,TrainingItems,0,23,23,35,,,,,,,,,,,12,m,22,59.8179634843,none,American English,VSH_Exp2,2015_Jun_15_1705,
Recordings/sufa.wav,no,s,f,u,no,a,sufa,Training,alveolar,TrainingItems,0,24,24,52,,,,,,,,,,,12,m,22,59.8179634843,none,American English,VSH_Exp2,2015_Jun_15_1705,
Recordings/fufi.wav,no,f,f,u,no,i,fufi,Training,bilabial,TrainingItems,0,25,25,70,,,,,,,,,,,12,m,22,59.8179634843,none,American English,VSH_Exp2,2015_Jun_15_1705,
Recordings/badu.wav,yes,b,d,a,yes,u,badu,Training,bilabial,TrainingItems,0,26,26,24,,,,,,,,,,,12,m,22,59.8179634843,none,American English,VSH_Exp2,2015_Jun_15_1705,
Recordings/fisa.wav,no,f,s,i,no,a,fisa,Training,bilabial,TrainingItems,0,27,27,48,,,,,,,,,,,12,m,22,59.8179634843,none,American English,VSH_Exp2,2015_Jun_15_1705,
Recordings/bibi.wav,yes,b,b,i,yes,i,bibi,Training,bilabial,TrainingItems,0,28,28,12,,,,,,,,,,,12,m,22,59.8179634843,none,American English,VSH_Exp2,2015_Jun_15_1705,
Recordings/safa.wav,no,s,f,a,no,a,safa,Training,alveolar,TrainingItems,0,29,29,86,,,,,,,,,,,12,m,22,59.8179634843,none,American English,VSH_Exp2,2015_Jun_15_1705,
Recordings/dada.wav,yes,d,d,a,yes,a,dada,Training,alveolar,TrainingItems,0,30,30,7,,,,,,,,,,,12,m,22,59.8179634843,none,American English,VSH_Exp2,2015_Jun_15_1705,
Recordings/sasu.wav,no,s,s,a,no,u,sasu,Training,alveolar,TrainingItems,0,31,31,19,,,,,,,,,,,12,m,22,59.8179634843,none,American English,VSH_Exp2,2015_Jun_15_1705,
Recordings/dibu.wav,yes,d,b,i,yes,u,dibu,Training,alveolar,TrainingItems,0,32,32,91,,,,,,,,,,,12,m,22,59.8179634843,none,American English,VSH_Exp2,2015_Jun_15_1705,
Recordings/vivi.wav,yes,v,v,i,no,i,vivi,Training,bilabial,TrainingItems,0,33,33,57,,,,,,,,,,,12,m,22,59.8179634843,none,American English,VSH_Exp2,2015_Jun_15_1705,
Recordings/tupi.wav,no,t,p,u,yes,i,tupi,Training,alveolar,TrainingItems,0,34,34,98,,,,,,,,,,,12,m,22,59.8179634843,none,American English,VSH_Exp2,2015_Jun_15_1705,
Recordings/fasi.wav,no,f,s,a,no,i,fasi,Training,bilabial,TrainingItems,0,35,35,68,,,,,,,,,,,12,m,22,59.8179634843,none,American English,VSH_Exp2,2015_Jun_15_1705,
Recordings/susi.wav,no,s,s,u,no,i,susi,Training,alveolar,TrainingItems,0,36,36,49,,,,,,,,,,,12,m,22,59.8179634843,none,American English,VSH_Exp2,2015_Jun_15_1705,
Recordings/zizu.wav,yes,z,z,i,no,u,zizu,Training,alveolar,TrainingItems,0,37,37,95,,,,,,,,,,,12,m,22,59.8179634843,none,American English,VSH_Exp2,2015_Jun_15_1705,
Recordings/fisu.wav,no,f,s,i,no,u,fisu,Training,bilabial,TrainingItems,0,38,38,77,,,,,,,,,,,12,m,22,59.8179634843,none,American English,VSH_Exp2,2015_Jun_15_1705,
Recordings/fasa.wav,no,f,s,a,no,a,fasa,Training,bilabial,TrainingItems,0,39,39,20,,,,,,,,,,,12,m,22,59.8179634843,none,American English,VSH_Exp2,2015_Jun_15_1705,
Recordings/tipi.wav,no,t,p,i,yes,i,tipi,Training,alveolar,TrainingItems,0,40,40,39,,,,,,,,,,,12,m,22,59.8179634843,none,American English,VSH_Exp2,2015_Jun_15_1705,
Recordings/dabi.wav,yes,d,b,a,yes,i,dabi,Training,alveolar,TrainingItems,0,41,41,99,,,,,,,,,,,12,m,22,59.8179634843,none,American English,VSH_Exp2,2015_Jun_15_1705,
Recordings/zuzu.wav,yes,z,z,u,no,u,zuzu,Training,alveolar,TrainingItems,0,42,42,93,,,,,,,,,,,12,m,22,59.8179634843,none,American English,VSH_Exp2,2015_Jun_15_1705,
Recordings/duba.wav,yes,d,b,u,yes,a,duba,Training,alveolar,TrainingItems,0,43,43,85,,,,,,,,,,,12,m,22,59.8179634843,none,American English,VSH_Exp2,2015_Jun_15_1705,
Recordings/bida.wav,yes,b,d,i,yes,a,bida,Training,bilabial,TrainingItems,0,44,44,75,,,,,,,,,,,12,m,22,59.8179634843,none,American English,VSH_Exp2,2015_Jun_15_1705,
Recordings/tupa.wav,no,t,p,u,yes,a,tupa,Training,alveolar,TrainingItems,0,45,45,69,,,,,,,,,,,12,m,22,59.8179634843,none,American English,VSH_Exp2,2015_Jun_15_1705,
Recordings/tipa.wav,no,t,p,i,yes,a,tipa,Training,alveolar,TrainingItems,0,46,46,28,,,,,,,,,,,12,m,22,59.8179634843,none,American English,VSH_Exp2,2015_Jun_15_1705,
Recordings/pati.wav,no,p,t,a,yes,i,pati,Training,bilabial,TrainingItems,0,47,47,59,,,,,,,,,,,12,m,22,59.8179634843,none,American English,VSH_Exp2,2015_Jun_15_1705,
Recordings/zuza.wav,yes,z,z,u,no,a,zuza,Training,alveolar,TrainingItems,0,48,48,46,,,,,,,,,,,12,m,22,59.8179634843,none,American English,VSH_Exp2,2015_Jun_15_1705,
Recordings/didu.wav,yes,d,d,i,yes,u,didu,Training,alveolar,TrainingItems,0,49,49,66,,,,,,,,,,,12,m,22,59.8179634843,none,American English,VSH_Exp2,2015_Jun_15_1705,
Recordings/pipa.wav,no,p,p,i,yes,a,pipa,Training,bilabial,TrainingItems,0,50,50,72,,,,,,,,,,,12,m,22,59.8179634843,none,American English,VSH_Exp2,2015_Jun_15_1705,
Recordings/dubu.wav,yes,d,b,u,yes,u,dubu,Training,alveolar,TrainingItems,0,51,51,42,,,,,,,,,,,12,m,22,59.8179634843,none,American English,VSH_Exp2,2015_Jun_15_1705,
Recordings/tita.wav,no,t,t,i,yes,a,tita,Training,alveolar,TrainingItems,0,52,52,64,,,,,,,,,,,12,m,22,59.8179634843,none,American English,VSH_Exp2,2015_Jun_15_1705,
Recordings/babi.wav,yes,b,b,a,yes,i,babi,Training,bilabial,TrainingItems,0,53,53,81,,,,,,,,,,,12,m,22,59.8179634843,none,American English,VSH_Exp2,2015_Jun_15_1705,
Recordings/fusa.wav,no,f,s,u,no,a,fusa,Training,bilabial,TrainingItems,0,54,54,10,,,,,,,,,,,12,m,22,59.8179634843,none,American English,VSH_Exp2,2015_Jun_15_1705,
Recordings/budu.wav,yes,b,d,u,yes,u,budu,Training,bilabial,TrainingItems,0,55,55,60,,,,,,,,,,,12,m,22,59.8179634843,none,American English,VSH_Exp2,2015_Jun_15_1705,
Recordings/tatu.wav,no,t,t,a,yes,u,tatu,Training,alveolar,TrainingItems,0,56,56,13,,,,,,,,,,,12,m,22,59.8179634843,none,American English,VSH_Exp2,2015_Jun_15_1705,
Recordings/tutu.wav,no,t,t,u,yes,u,tutu,Training,alveolar,TrainingItems,0,57,57,88,,,,,,,,,,,12,m,22,59.8179634843,none,American English,VSH_Exp2,2015_Jun_15_1705,
Recordings/fifi.wav,no,f,f,i,no,i,fifi,Training,bilabial,TrainingItems,0,58,58,26,,,,,,,,,,,12,m,22,59.8179634843,none,American English,VSH_Exp2,2015_Jun_15_1705,
Recordings/baba.wav,yes,b,b,a,yes,a,baba,Training,bilabial,TrainingItems,0,59,59,11,,,,,,,,,,,12,m,22,59.8179634843,none,American English,VSH_Exp2,2015_Jun_15_1705,
Recordings/tati.wav,no,t,t,a,yes,i,tati,Training,alveolar,TrainingItems,0,60,60,82,,,,,,,,,,,12,m,22,59.8179634843,none,American English,VSH_Exp2,2015_Jun_15_1705,
Recordings/patu.wav,no,p,t,a,yes,u,patu,Training,bilabial,TrainingItems,0,61,61,33,,,,,,,,,,,12,m,22,59.8179634843,none,American English,VSH_Exp2,2015_Jun_15_1705,
Recordings/bubu.wav,yes,b,b,u,yes,u,bubu,Training,bilabial,TrainingItems,0,62,62,29,,,,,,,,,,,12,m,22,59.8179634843,none,American English,VSH_Exp2,2015_Jun_15_1705,
Recordings/sifu.wav,no,s,f,i,no,u,sifu,Training,alveolar,TrainingItems,0,63,63,1,,,,,,,,,,,12,m,22,59.8179634843,none,American English,VSH_Exp2,2015_Jun_15_1705,
Recordings/putu.wav,no,p,t,u,yes,u,putu,Training,bilabial,TrainingItems,0,64,64,78,,,,,,,,,,,12,m,22,59.8179634843,none,American English,VSH_Exp2,2015_Jun_15_1705,
Recordings/dudu.wav,yes,d,d,u,yes,u,dudu,Training,alveolar,TrainingItems,0,65,65,2,,,,,,,,,,,12,m,22,59.8179634843,none,American English,VSH_Exp2,2015_Jun_15_1705,
Recordings/puta.wav,no,p,t,u,yes,a,puta,Training,bilabial,TrainingItems,0,66,66,87,,,,,,,,,,,12,m,22,59.8179634843,none,American English,VSH_Exp2,2015_Jun_15_1705,
Recordings/sufi.wav,no,s,f,u,no,i,sufi,Training,alveolar,TrainingItems,0,67,67,96,,,,,,,,,,,12,m,22,59.8179634843,none,American English,VSH_Exp2,2015_Jun_15_1705,
Recordings/safi.wav,no,s,f,a,no,i,safi,Training,alveolar,TrainingItems,0,68,68,38,,,,,,,,,,,12,m,22,59.8179634843,none,American English,VSH_Exp2,2015_Jun_15_1705,
Recordings/bubi.wav,yes,b,b,u,yes,i,bubi,Training,bilabial,TrainingItems,0,69,69,71,,,,,,,,,,,12,m,22,59.8179634843,none,American English,VSH_Exp2,2015_Jun_15_1705,
Recordings/dadi.wav,yes,d,d,a,yes,i,dadi,Training,alveolar,TrainingItems,0,70,70,9,,,,,,,,,,,12,m,22,59.8179634843,none,American English,VSH_Exp2,2015_Jun_15_1705,
Recordings/susa.wav,no,s,s,u,no,a,susa,Training,alveolar,TrainingItems,0,71,71,58,,,,,,,,,,,12,m,22,59.8179634843,none,American English,VSH_Exp2,2015_Jun_15_1705,
Recordings/vavu.wav,yes,v,v,a,no,u,vavu,Training,bilabial,TrainingItems,0,72,72,30,,,,,,,,,,,12,m,22,59.8179634843,none,American English,VSH_Exp2,2015_Jun_15_1705,
Recordings/vava.wav,yes,v,v,a,no,a,vava,Training,bilabial,TrainingItems,0,73,73,32,,,,,,,,,,,12,m,22,59.8179634843,none,American English,VSH_Exp2,2015_Jun_15_1705,
Recordings/tuta.wav,no,t,t,u,yes,a,tuta,Training,alveolar,TrainingItems,0,74,74,83,,,,,,,,,,,12,m,22,59.8179634843,none,American English,VSH_Exp2,2015_Jun_15_1705,
Recordings/pupu.wav,no,p,p,u,yes,u,pupu,Training,bilabial,TrainingItems,0,75,75,21,,,,,,,,,,,12,m,22,59.8179634843,none,American English,VSH_Exp2,2015_Jun_15_1705,
Recordings/sasi.wav,no,s,s,a,no,i,sasi,Training,alveolar,TrainingItems,0,76,76,25,,,,,,,,,,,12,m,22,59.8179634843,none,American English,VSH_Exp2,2015_Jun_15_1705,
Recordings/bibu.wav,yes,b,b,i,yes,u,bibu,Training,bilabial,TrainingItems,0,77,77,22,,,,,,,,,,,12,m,22,59.8179634843,none,American English,VSH_Exp2,2015_Jun_15_1705,
Recordings/piti.wav,no,p,t,i,yes,i,piti,Training,bilabial,TrainingItems,0,78,78,45,,,,,,,,,,,12,m,22,59.8179634843,none,American English,VSH_Exp2,2015_Jun_15_1705,
Recordings/babu.wav,yes,b,b,a,yes,u,babu,Training,bilabial,TrainingItems,0,79,79,14,,,,,,,,,,,12,m,22,59.8179634843,none,American English,VSH_Exp2,2015_Jun_15_1705,
Recordings/pipu.wav,no,p,p,i,yes,u,pipu,Training,bilabial,TrainingItems,0,80,80,3,,,,,,,,,,,12,m,22,59.8179634843,none,American English,VSH_Exp2,2015_Jun_15_1705,
Recordings/tuti.wav,no,t,t,u,yes,i,tuti,Training,alveolar,TrainingItems,0,81,81,50,,,,,,,,,,,12,m,22,59.8179634843,none,American English,VSH_Exp2,2015_Jun_15_1705,
Recordings/buba.wav,yes,b,b,u,yes,a,buba,Training,bilabial,TrainingItems,0,82,82,67,,,,,,,,,,,12,m,22,59.8179634843,none,American English,VSH_Exp2,2015_Jun_15_1705,
Recordings/fusu.wav,no,f,s,u,no,u,fusu,Training,bilabial,TrainingItems,0,83,83,54,,,,,,,,,,,12,m,22,59.8179634843,none,American English,VSH_Exp2,2015_Jun_15_1705,
Recordings/fafu.wav,no,f,f,a,no,u,fafu,Training,bilabial,TrainingItems,0,84,84,84,,,,,,,,,,,12,m,22,59.8179634843,none,American English,VSH_Exp2,2015_Jun_15_1705,
Recordings/dadu.wav,yes,d,d,a,yes,u,dadu,Training,alveolar,TrainingItems,0,85,85,34,,,,,,,,,,,12,m,22,59.8179634843,none,American English,VSH_Exp2,2015_Jun_15_1705,
Recordings/daba.wav,yes,d,b,a,yes,a,daba,Training,alveolar,TrainingItems,0,86,86,43,,,,,,,,,,,12,m,22,59.8179634843,none,American English,VSH_Exp2,2015_Jun_15_1705,
Recordings/fufu.wav,no,f,f,u,no,u,fufu,Training,bilabial,TrainingItems,0,87,87,8,,,,,,,,,,,12,m,22,59.8179634843,none,American English,VSH_Exp2,2015_Jun_15_1705,
Recordings/tapu.wav,no,t,p,a,yes,u,tapu,Training,alveolar,TrainingItems,0,88,88,76,,,,,,,,,,,12,m,22,59.8179634843,none,American English,VSH_Exp2,2015_Jun_15_1705,
Recordings/titi.wav,no,t,t,i,yes,i,titi,Training,alveolar,TrainingItems,0,89,89,40,,,,,,,,,,,12,m,22,59.8179634843,none,American English,VSH_Exp2,2015_Jun_15_1705,
Recordings/bidi.wav,yes,b,d,i,yes,i,bidi,Training,bilabial,TrainingItems,0,90,90,56,,,,,,,,,,,12,m,22,59.8179634843,none,American English,VSH_Exp2,2015_Jun_15_1705,
Recordings/vavi.wav,yes,v,v,a,no,i,vavi,Training,bilabial,TrainingItems,0,91,91,0,,,,,,,,,,,12,m,22,59.8179634843,none,American English,VSH_Exp2,2015_Jun_15_1705,
Recordings/sisa.wav,no,s,s,i,no,a,sisa,Training,alveolar,TrainingItems,0,92,92,55,,,,,,,,,,,12,m,22,59.8179634843,none,American English,VSH_Exp2,2015_Jun_15_1705,
Recordings/vuvu.wav,yes,v,v,u,no,u,vuvu,Training,bilabial,TrainingItems,0,93,93,73,,,,,,,,,,,12,m,22,59.8179634843,none,American English,VSH_Exp2,2015_Jun_15_1705,
Recordings/titu.wav,no,t,t,i,yes,u,titu,Training,alveolar,TrainingItems,0,94,94,53,,,,,,,,,,,12,m,22,59.8179634843,none,American English,VSH_Exp2,2015_Jun_15_1705,
Recordings/pupi.wav,no,p,p,u,yes,i,pupi,Training,bilabial,TrainingItems,0,95,95,90,,,,,,,,,,,12,m,22,59.8179634843,none,American English,VSH_Exp2,2015_Jun_15_1705,
Recordings/fisi.wav,no,f,s,i,no,i,fisi,Training,bilabial,TrainingItems,0,96,96,63,,,,,,,,,,,12,m,22,59.8179634843,none,American English,VSH_Exp2,2015_Jun_15_1705,
Recordings/dibi.wav,yes,d,b,i,yes,i,dibi,Training,alveolar,TrainingItems,0,97,97,36,,,,,,,,,,,12,m,22,59.8179634843,none,American English,VSH_Exp2,2015_Jun_15_1705,
Recordings/fafi.wav,no,f,f,a,no,i,fafi,Training,bilabial,TrainingItems,0,98,98,15,,,,,,,,,,,12,m,22,59.8179634843,none,American English,VSH_Exp2,2015_Jun_15_1705,
Recordings/pitu.wav,no,p,t,i,yes,u,pitu,Training,bilabial,TrainingItems,0,99,99,41,,,,,,,,,,,12,m,22,59.8179634843,none,American English,VSH_Exp2,2015_Jun_15_1705,
Recordings/baba.wav,yes,b,b,a,yes,a,baba,Training,bilabial,TrainingItems,1,0,100,11,,,,,,,,,,,12,m,22,59.8179634843,none,American English,VSH_Exp2,2015_Jun_15_1705,
Recordings/susi.wav,no,s,s,u,no,i,susi,Training,alveolar,TrainingItems,1,1,101,49,,,,,,,,,,,12,m,22,59.8179634843,none,American English,VSH_Exp2,2015_Jun_15_1705,
Recordings/didu.wav,yes,d,d,i,yes,u,didu,Training,alveolar,TrainingItems,1,2,102,66,,,,,,,,,,,12,m,22,59.8179634843,none,American English,VSH_Exp2,2015_Jun_15_1705,
Recordings/dadi.wav,yes,d,d,a,yes,i,dadi,Training,alveolar,TrainingItems,1,3,103,9,,,,,,,,,,,12,m,22,59.8179634843,none,American English,VSH_Exp2,2015_Jun_15_1705,
Recordings/puta.wav,no,p,t,u,yes,a,puta,Training,bilabial,TrainingItems,1,4,104,87,,,,,,,,,,,12,m,22,59.8179634843,none,American English,VSH_Exp2,2015_Jun_15_1705,
Recordings/tuti.wav,no,t,t,u,yes,i,tuti,Training,alveolar,TrainingItems,1,5,105,50,,,,,,,,,,,12,m,22,59.8179634843,none,American English,VSH_Exp2,2015_Jun_15_1705,
Recordings/sufu.wav,no,s,f,u,no,u,sufu,Training,alveolar,TrainingItems,1,6,106,62,,,,,,,,,,,12,m,22,59.8179634843,none,American English,VSH_Exp2,2015_Jun_15_1705,
Recordings/buba.wav,yes,b,b,u,yes,a,buba,Training,bilabial,TrainingItems,1,7,107,67,,,,,,,,,,,12,m,22,59.8179634843,none,American English,VSH_Exp2,2015_Jun_15_1705,
Recordings/bubi.wav,yes,b,b,u,yes,i,bubi,Training,bilabial,TrainingItems,1,8,108,71,,,,,,,,,,,12,m,22,59.8179634843,none,American English,VSH_Exp2,2015_Jun_15_1705,
Recordings/pipa.wav,no,p,p,i,yes,a,pipa,Training,bilabial,TrainingItems,1,9,109,72,,,,,,,,,,,12,m,22,59.8179634843,none,American English,VSH_Exp2,2015_Jun_15_1705,
Recordings/babi.wav,yes,b,b,a,yes,i,babi,Training,bilabial,TrainingItems,1,10,110,81,,,,,,,,,,,12,m,22,59.8179634843,none,American English,VSH_Exp2,2015_Jun_15_1705,
Recordings/sifa.wav,no,s,f,i,no,a,sifa,Training,alveolar,TrainingItems,1,11,111,27,,,,,,,,,,,12,m,22,59.8179634843,none,American English,VSH_Exp2,2015_Jun_15_1705,
Recordings/bibi.wav,yes,b,b,i,yes,i,bibi,Training,bilabial,TrainingItems,1,12,112,12,,,,,,,,,,,12,m,22,59.8179634843,none,American English,VSH_Exp2,2015_Jun_15_1705,
Recordings/safa.wav,no,s,f,a,no,a,safa,Training,alveolar,TrainingItems,1,13,113,86,,,,,,,,,,,12,m,22,59.8179634843,none,American English,VSH_Exp2,2015_Jun_15_1705,
Recordings/susa.wav,no,s,s,u,no,a,susa,Training,alveolar,TrainingItems,1,14,114,58,,,,,,,,,,,12,m,22,59.8179634843,none,American English,VSH_Exp2,2015_Jun_15_1705,
Recordings/dubu.wav,yes,d,b,u,yes,u,dubu,Training,alveolar,TrainingItems,1,15,115,42,,,,,,,,,,,12,m,22,59.8179634843,none,American English,VSH_Exp2,2015_Jun_15_1705,
Recordings/fasu.wav,no,f,s,a,no,u,fasu,Training,bilabial,TrainingItems,1,16,116,92,,,,,,,,,,,12,m,22,59.8179634843,none,American English,VSH_Exp2,2015_Jun_15_1705,
Recordings/bidu.wav,yes,b,d,i,yes,u,bidu,Training,bilabial,TrainingItems,1,17,117,74,,,,,,,,,,,12,m,22,59.8179634843,none,American English,VSH_Exp2,2015_Jun_15_1705,
Recordings/papa.wav,no,p,p,a,yes,a,papa,Training,bilabial,TrainingItems,1,18,118,51,,,,,,,,,,,12,m,22,59.8179634843,none,American English,VSH_Exp2,2015_Jun_15_1705,
Recordings/fafi.wav,no,f,f,a,no,i,fafi,Training,bilabial,TrainingItems,1,19,119,15,,,,,,,,,,,12,m,22,59.8179634843,none,American English,VSH_Exp2,2015_Jun_15_1705,
Recordings/patu.wav,no,p,t,a,yes,u,patu,Training,bilabial,TrainingItems,1,20,120,33,,,,,,,,,,,12,m,22,59.8179634843,none,American English,VSH_Exp2,2015_Jun_15_1705,
Recordings/fufi.wav,no,f,f,u,no,i,fufi,Training,bilabial,TrainingItems,1,21,121,70,,,,,,,,,,,12,m,22,59.8179634843,none,American English,VSH_Exp2,2015_Jun_15_1705,
Recordings/sisa.wav,no,s,s,i,no,a,sisa,Training,alveolar,TrainingItems,1,22,122,55,,,,,,,,,,,12,m,22,59.8179634843,none,American English,VSH_Exp2,2015_Jun_15_1705,
Recordings/bibu.wav,yes,b,b,i,yes,u,bibu,Training,bilabial,TrainingItems,1,23,123,22,,,,,,,,,,,12,m,22,59.8179634843,none,American English,VSH_Exp2,2015_Jun_15_1705,
Recordings/dabu.wav,yes,d,b,a,yes,u,dabu,Training,alveolar,TrainingItems,1,24,124,4,,,,,,,,,,,12,m,22,59.8179634843,none,American English,VSH_Exp2,2015_Jun_15_1705,
Recordings/badi.wav,yes,b,d,a,yes,i,badi,Training,bilabial,TrainingItems,1,25,125,65,,,,,,,,,,,12,m,22,59.8179634843,none,American English,VSH_Exp2,2015_Jun_15_1705,
Recordings/vivi.wav,yes,v,v,i,no,i,vivi,Training,bilabial,TrainingItems,1,26,126,57,,,,,,,,,,,12,m,22,59.8179634843,none,American English,VSH_Exp2,2015_Jun_15_1705,
Recordings/fufa.wav,no,f,f,u,no,a,fufa,Training,bilabial,TrainingItems,1,27,127,16,,,,,,,,,,,12,m,22,59.8179634843,none,American English,VSH_Exp2,2015_Jun_15_1705,
Recordings/fasa.wav,no,f,s,a,no,a,fasa,Training,bilabial,TrainingItems,1,28,128,20,,,,,,,,,,,12,m,22,59.8179634843,none,American English,VSH_Exp2,2015_Jun_15_1705,
Recordings/sufa.wav,no,s,f,u,no,a,sufa,Training,alveolar,TrainingItems,1,29,129,52,,,,,,,,,,,12,m,22,59.8179634843,none,American English,VSH_Exp2,2015_Jun_15_1705,
Recordings/titu.wav,no,t,t,i,yes,u,titu,Training,alveolar,TrainingItems,1,30,130,53,,,,,,,,,,,12,m,22,59.8179634843,none,American English,VSH_Exp2,2015_Jun_15_1705,
Recordings/tupi.wav,no,t,p,u,yes,i,tupi,Training,alveolar,TrainingItems,1,31,131,98,,,,,,,,,,,12,m,22,59.8179634843,none,American English,VSH_Exp2,2015_Jun_15_1705,
Recordings/sifu.wav,no,s,f,i,no,u,sifu,Training,alveolar,TrainingItems,1,32,132,1,,,,,,,,,,,12,m,22,59.8179634843,none,American English,VSH_Exp2,2015_Jun_15_1705,
Recordings/tipu.wav,no,t,p,i,yes,u,tipu,Training,alveolar,TrainingItems,1,33,133,97,,,,,,,,,,,12,m,22,59.8179634843,none,American English,VSH_Exp2,2015_Jun_15_1705,
Recordings/fisu.wav,no,f,s,i,no,u,fisu,Training,bilabial,TrainingItems,1,34,134,77,,,,,,,,,,,12,m,22,59.8179634843,none,American English,VSH_Exp2,2015_Jun_15_1705,
Recordings/dadu.wav,yes,d,d,a,yes,u,dadu,Training,alveolar,TrainingItems,1,35,135,34,,,,,,,,,,,12,m,22,59.8179634843,none,American English,VSH_Exp2,2015_Jun_15_1705,
Recordings/dibu.wav,yes,d,b,i,yes,u,dibu,Training,alveolar,TrainingItems,1,36,136,91,,,,,,,,,,,12,m,22,59.8179634843,none,American English,VSH_Exp2,2015_Jun_15_1705,
Recordings/safu.wav,no,s,f,a,no,u,safu,Training,alveolar,TrainingItems,1,37,137,6,,,,,,,,,,,12,m,22,59.8179634843,none,American English,VSH_Exp2,2015_Jun_15_1705,
Recordings/bubu.wav,yes,b,b,u,yes,u,bubu,Training,bilabial,TrainingItems,1,38,138,29,,,,,,,,,,,12,m,22,59.8179634843,none,American English,VSH_Exp2,2015_Jun_15_1705,
Recordings/vuva.wav,yes,v,v,u,no,a,vuva,Training,bilabial,TrainingItems,1,39,139,89,,,,,,,,,,,12,m,22,59.8179634843,none,American English,VSH_Exp2,2015_Jun_15_1705,
Recordings/ziza.wav,yes,z,z,i,no,a,ziza,Training,alveolar,TrainingItems,1,40,140,37,,,,,,,,,,,12,m,22,59.8179634843,none,American English,VSH_Exp2,2015_Jun_15_1705,
Recordings/tatu.wav,no,t,t,a,yes,u,tatu,Training,alveolar,TrainingItems,1,41,141,13,,,,,,,,,,,12,m,22,59.8179634843,none,American English,VSH_Exp2,2015_Jun_15_1705,
Recordings/fufu.wav,no,f,f,u,no,u,fufu,Training,bilabial,TrainingItems,1,42,142,8,,,,,,,,,,,12,m,22,59.8179634843,none,American English,VSH_Exp2,2015_Jun_15_1705,
Recordings/tapu.wav,no,t,p,a,yes,u,tapu,Training,alveolar,TrainingItems,1,43,143,76,,,,,,,,,,,12,m,22,59.8179634843,none,American English,VSH_Exp2,2015_Jun_15_1705,
Recordings/fafu.wav,no,f,f,a,no,u,fafu,Training,bilabial,TrainingItems,1,44,144,84,,,,,,,,,,,12,m,22,59.8179634843,none,American English,VSH_Exp2,2015_Jun_15_1705,
Recordings/fasi.wav,no,f,s,a,no,i,fasi,Training,bilabial,TrainingItems,1,45,145,68,,,,,,,,,,,12,m,22,59.8179634843,none,American English,VSH_Exp2,2015_Jun_15_1705,
Recordings/pupu.wav,no,p,p,u,yes,u,pupu,Training,bilabial,TrainingItems,1,46,146,21,,,,,,,,,,,12,m,22,59.8179634843,none,American English,VSH_Exp2,2015_Jun_15_1705,
Recordings/tuta.wav,no,t,t,u,yes,a,tuta,Training,alveolar,TrainingItems,1,47,147,83,,,,,,,,,,,12,m,22,59.8179634843,none,American English,VSH_Exp2,2015_Jun_15_1705,
Recordings/badu.wav,yes,b,d,a,yes,u,badu,Training,bilabial,TrainingItems,1,48,148,24,,,,,,,,,,,12,m,22,59.8179634843,none,American English,VSH_Exp2,2015_Jun_15_1705,
Recordings/vavi.wav,yes,v,v,a,no,i,vavi,Training,bilabial,TrainingItems,1,49,149,0,,,,,,,,,,,12,m,22,59.8179634843,none,American English,VSH_Exp2,2015_Jun_15_1705,
Recordings/fusa.wav,no,f,s,u,no,a,fusa,Training,bilabial,TrainingItems,1,50,150,10,,,,,,,,,,,12,m,22,59.8179634843,none,American English,VSH_Exp2,2015_Jun_15_1705,
Recordings/zuzu.wav,yes,z,z,u,no,u,zuzu,Training,alveolar,TrainingItems,1,51,151,93,,,,,,,,,,,12,m,22,59.8179634843,none,American English,VSH_Exp2,2015_Jun_15_1705,
Recordings/pati.wav,no,p,t,a,yes,i,pati,Training,bilabial,TrainingItems,1,52,152,59,,,,,,,,,,,12,m,22,59.8179634843,none,American English,VSH_Exp2,2015_Jun_15_1705,
Recordings/duba.wav,yes,d,b,u,yes,a,duba,Training,alveolar,TrainingItems,1,53,153,85,,,,,,,,,,,12,m,22,59.8179634843,none,American English,VSH_Exp2,2015_Jun_15_1705,
Recordings/fisi.wav,no,f,s,i,no,i,fisi,Training,bilabial,TrainingItems,1,54,154,63,,,,,,,,,,,12,m,22,59.8179634843,none,American English,VSH_Exp2,2015_Jun_15_1705,
Recordings/fifa.wav,no,f,f,i,no,a,fifa,Training,bilabial,TrainingItems,1,55,155,80,,,,,,,,,,,12,m,22,59.8179634843,none,American English,VSH_Exp2,2015_Jun_15_1705,
Recordings/putu.wav,no,p,t,u,yes,u,putu,Training,bilabial,TrainingItems,1,56,156,78,,,,,,,,,,,12,m,22,59.8179634843,none,American English,VSH_Exp2,2015_Jun_15_1705,
Recordings/safi.wav,no,s,f,a,no,i,safi,Training,alveolar,TrainingItems,1,57,157,38,,,,,,,,,,,12,m,22,59.8179634843,none,American English,VSH_Exp2,2015_Jun_15_1705,
Recordings/pupi.wav,no,p,p,u,yes,i,pupi,Training,bilabial,TrainingItems,1,58,158,90,,,,,,,,,,,12,m,22,59.8179634843,none,American English,VSH_Exp2,2015_Jun_15_1705,
Recordings/zizi.wav,yes,z,z,i,no,i,zizi,Training,alveolar,TrainingItems,1,59,159,79,,,,,,,,,,,12,m,22,59.8179634843,none,American English,VSH_Exp2,2015_Jun_15_1705,
Recordings/fifi.wav,no,f,f,i,no,i,fifi,Training,bilabial,TrainingItems,1,60,160,26,,,,,,,,,,,12,m,22,59.8179634843,none,American English,VSH_Exp2,2015_Jun_15_1705,
Recordings/dida.wav,yes,d,d,i,yes,a,dida,Training,alveolar,TrainingItems,1,61,161,31,,,,,,,,,,,12,m,22,59.8179634843,none,American English,VSH_Exp2,2015_Jun_15_1705,
Recordings/vuvu.wav,yes,v,v,u,no,u,vuvu,Training,bilabial,TrainingItems,1,62,162,73,,,,,,,,,,,12,m,22,59.8179634843,none,American English,VSH_Exp2,2015_Jun_15_1705,
Recordings/pitu.wav,no,p,t,i,yes,u,pitu,Training,bilabial,TrainingItems,1,63,163,41,,,,,,,,,,,12,m,22,59.8179634843,none,American English,VSH_Exp2,2015_Jun_15_1705,
Recordings/vuvi.wav,yes,v,v,u,no,i,vuvi,Training,bilabial,TrainingItems,1,64,164,17,,,,,,,,,,,12,m,22,59.8179634843,none,American English,VSH_Exp2,2015_Jun_15_1705,
Recordings/dabi.wav,yes,d,b,a,yes,i,dabi,Training,alveolar,TrainingItems,1,65,165,99,,,,,,,,,,,12,m,22,59.8179634843,none,American English,VSH_Exp2,2015_Jun_15_1705,
Recordings/vava.wav,yes,v,v,a,no,a,vava,Training,bilabial,TrainingItems,1,66,166,32,,,,,,,,,,,12,m,22,59.8179634843,none,American English,VSH_Exp2,2015_Jun_15_1705,
Recordings/dada.wav,yes,d,d,a,yes,a,dada,Training,alveolar,TrainingItems,1,67,167,7,,,,,,,,,,,12,m,22,59.8179634843,none,American English,VSH_Exp2,2015_Jun_15_1705,
Recordings/sisu.wav,no,s,s,i,no,u,sisu,Training,alveolar,TrainingItems,1,68,168,35,,,,,,,,,,,12,m,22,59.8179634843,none,American English,VSH_Exp2,2015_Jun_15_1705,
Recordings/puti.wav,no,p,t,u,yes,i,puti,Training,bilabial,TrainingItems,1,69,169,18,,,,,,,,,,,12,m,22,59.8179634843,none,American English,VSH_Exp2,2015_Jun_15_1705,
Recordings/daba.wav,yes,d,b,a,yes,a,daba,Training,alveolar,TrainingItems,1,70,170,43,,,,,,,,,,,12,m,22,59.8179634843,none,American English,VSH_Exp2,2015_Jun_15_1705,
Recordings/budu.wav,yes,b,d,u,yes,u,budu,Training,bilabial,TrainingItems,1,71,171,60,,,,,,,,,,,12,m,22,59.8179634843,none,American English,VSH_Exp2,2015_Jun_15_1705,
Recordings/sufi.wav,no,s,f,u,no,i,sufi,Training,alveolar,TrainingItems,1,72,172,96,,,,,,,,,,,12,m,22,59.8179634843,none,American English,VSH_Exp2,2015_Jun_15_1705,
Recordings/buda.wav,yes,b,d,u,yes,a,buda,Training,bilabial,TrainingItems,1,73,173,23,,,,,,,,,,,12,m,22,59.8179634843,none,American English,VSH_Exp2,2015_Jun_15_1705,
Recordings/tita.wav,no,t,t,i,yes,a,tita,Training,alveolar,TrainingItems,1,74,174,64,,,,,,,,,,,12,m,22,59.8179634843,none,American English,VSH_Exp2,2015_Jun_15_1705,
Recordings/fusu.wav,no,f,s,u,no,u,fusu,Training,bilabial,TrainingItems,1,75,175,54,,,,,,,,,,,12,m,22,59.8179634843,none,American English,VSH_Exp2,2015_Jun_15_1705,
Recordings/dibi.wav,yes,d,b,i,yes,i,dibi,Training,alveolar,TrainingItems,1,76,176,36,,,,,,,,,,,12,m,22,59.8179634843,none,American English,VSH_Exp2,2015_Jun_15_1705,
Recordings/sasi.wav,no,s,s,a,no,i,sasi,Training,alveolar,TrainingItems,1,77,177,25,,,,,,,,,,,12,m,22,59.8179634843,none,American English,VSH_Exp2,2015_Jun_15_1705,
Recordings/piti.wav,no,p,t,i,yes,i,piti,Training,bilabial,TrainingItems,1,78,178,45,,,,,,,,,,,12,m,22,59.8179634843,none,American English,VSH_Exp2,2015_Jun_15_1705,
Recordings/dudu.wav,yes,d,d,u,yes,u,dudu,Training,alveolar,TrainingItems,1,79,179,2,,,,,,,,,,,12,m,22,59.8179634843,none,American English,VSH_Exp2,2015_Jun_15_1705,
Recordings/sasu.wav,no,s,s,a,no,u,sasu,Training,alveolar,TrainingItems,1,80,180,19,,,,,,,,,,,12,m,22,59.8179634843,none,American English,VSH_Exp2,2015_Jun_15_1705,
Recordings/tipi.wav,no,t,p,i,yes,i,tipi,Training,alveolar,TrainingItems,1,81,181,39,,,,,,,,,,,12,m,22,59.8179634843,none,American English,VSH_Exp2,2015_Jun_15_1705,
Recordings/zizu.wav,yes,z,z,i,no,u,zizu,Training,alveolar,TrainingItems,1,82,182,95,,,,,,,,,,,12,m,22,59.8179634843,none,American English,VSH_Exp2,2015_Jun_15_1705,
Recordings/tati.wav,no,t,t,a,yes,i,tati,Training,alveolar,TrainingItems,1,83,183,82,,,,,,,,,,,12,m,22,59.8179634843,none,American English,VSH_Exp2,2015_Jun_15_1705,
Recordings/susu.wav,no,s,s,u,no,u,susu,Training,alveolar,TrainingItems,1,84,184,94,,,,,,,,,,,12,m,22,59.8179634843,none,American English,VSH_Exp2,2015_Jun_15_1705,
Recordings/fisa.wav,no,f,s,i,no,a,fisa,Training,bilabial,TrainingItems,1,85,185,48,,,,,,,,,,,12,m,22,59.8179634843,none,American English,VSH_Exp2,2015_Jun_15_1705,
Recordings/pita.wav,no,p,t,i,yes,a,pita,Training,bilabial,TrainingItems,1,86,186,44,,,,,,,,,,,12,m,22,59.8179634843,none,American English,VSH_Exp2,2015_Jun_15_1705,
Recordings/vavu.wav,yes,v,v,a,no,u,vavu,Training,bilabial,TrainingItems,1,87,187,30,,,,,,,,,,,12,m,22,59.8179634843,none,American English,VSH_Exp2,2015_Jun_15_1705,
Recordings/viva.wav,yes,v,v,i,no,a,viva,Training,bilabial,TrainingItems,1,88,188,47,,,,,,,,,,,12,m,22,59.8179634843,none,American English,VSH_Exp2,2015_Jun_15_1705,
Recordings/fafa.wav,no,f,f,a,no,a,fafa,Training,bilabial,TrainingItems,1,89,189,5,,,,,,,,,,,12,m,22,59.8179634843,none,American English,VSH_Exp2,2015_Jun_15_1705,
Recordings/budi.wav,yes,b,d,u,yes,i,budi,Training,bilabial,TrainingItems,1,90,190,61,,,,,,,,,,,12,m,22,59.8179634843,none,American English,VSH_Exp2,2015_Jun_15_1705,
Recordings/babu.wav,yes,b,b,a,yes,u,babu,Training,bilabial,TrainingItems,1,91,191,14,,,,,,,,,,,12,m,22,59.8179634843,none,American English,VSH_Exp2,2015_Jun_15_1705,
Recordings/pipu.wav,no,p,p,i,yes,u,pipu,Training,bilabial,TrainingItems,1,92,192,3,,,,,,,,,,,12,m,22,59.8179634843,none,American English,VSH_Exp2,2015_Jun_15_1705,
Recordings/bidi.wav,yes,b,d,i,yes,i,bidi,Training,bilabial,TrainingItems,1,93,193,56,,,,,,,,,,,12,m,22,59.8179634843,none,American English,VSH_Exp2,2015_Jun_15_1705,
Recordings/titi.wav,no,t,t,i,yes,i,titi,Training,alveolar,TrainingItems,1,94,194,40,,,,,,,,,,,12,m,22,59.8179634843,none,American English,VSH_Exp2,2015_Jun_15_1705,
Recordings/zuza.wav,yes,z,z,u,no,a,zuza,Training,alveolar,TrainingItems,1,95,195,46,,,,,,,,,,,12,m,22,59.8179634843,none,American English,VSH_Exp2,2015_Jun_15_1705,
Recordings/bida.wav,yes,b,d,i,yes,a,bida,Training,bilabial,TrainingItems,1,96,196,75,,,,,,,,,,,12,m,22,59.8179634843,none,American English,VSH_Exp2,2015_Jun_15_1705,
Recordings/tutu.wav,no,t,t,u,yes,u,tutu,Training,alveolar,TrainingItems,1,97,197,88,,,,,,,,,,,12,m,22,59.8179634843,none,American English,VSH_Exp2,2015_Jun_15_1705,
Recordings/tupa.wav,no,t,p,u,yes,a,tupa,Training,alveolar,TrainingItems,1,98,198,69,,,,,,,,,,,12,m,22,59.8179634843,none,American English,VSH_Exp2,2015_Jun_15_1705,
Recordings/tipa.wav,no,t,p,i,yes,a,tipa,Training,alveolar,TrainingItems,1,99,199,28,,,,,,,,,,,12,m,22,59.8179634843,none,American English,VSH_Exp2,2015_Jun_15_1705,
,,,,,,,,,,,,,,,,,,,,,space,5.68403196335,,,12,m,22,59.8179634843,none,American English,VSH_Exp2,2015_Jun_15_1705,
Recordings/tavi.wav,no,t,v,a,yes,i,tavi,Controls,alveolar,NoPatternControls,,,,,0,0,0,49,,,,,No,7.826,12,m,22,59.8179634843,none,American English,VSH_Exp2,2015_Jun_15_1705,
Recordings/dusa.wav,yes,d,s,u,yes,a,dusa,Controls,alveolar,NoPatternControls,,,,,0,1,1,55,,,,,No,6.187,12,m,22,59.8179634843,none,American English,VSH_Exp2,2015_Jun_15_1705,
Recordings/puti.wav,no,p,t,u,yes,i,puti,Test,bilabial,OldTestStimuli,,,,,0,2,2,4,,,,,Yes,1.323,12,m,22,59.8179634843,none,American English,VSH_Exp2,2015_Jun_15_1705,
Recordings/zuva.wav,yes,z,v,u,no,a,zuva,Test,alveolar,NewTestStimuli,,,,,0,3,3,16,,,,,Yes,0.989,12,m,22,59.8179634843,none,American English,VSH_Exp2,2015_Jun_15_1705,
Recordings/zava.wav,yes,z,v,a,no,a,zava,Test,alveolar,NewTestStimuli,,,,,0,4,4,22,,,,,No,5.77,12,m,22,59.8179634843,none,American English,VSH_Exp2,2015_Jun_15_1705,
Recordings/fapa.wav,no,f,p,a,no,a,fapa,Controls,bilabial,VoicingControls,,,,,0,5,5,44,,,,,Yes,1.657,12,m,22,59.8179634843,none,American English,VSH_Exp2,2015_Jun_15_1705,
Recordings/ditu.wav,yes,d,t,i,yes,u,ditu,Controls,alveolar,StopControls,,,,,0,6,6,28,,,,,Yes,1.774,12,m,22,59.8179634843,none,American English,VSH_Exp2,2015_Jun_15_1705,
Recordings/duzi.wav,yes,d,z,u,yes,i,duzi,Controls,alveolar,VoicingControls,,,,,0,7,7,43,,,,,No,1.473,12,m,22,59.8179634843,none,American English,VSH_Exp2,2015_Jun_15_1705,
Recordings/fida.wav,no,f,d,i,no,a,fida,Controls,bilabial,NoPatternControls,,,,,0,8,8,53,,,,,Yes,2.142,12,m,22,59.8179634843,none,American English,VSH_Exp2,2015_Jun_15_1705,
Recordings/fiva.wav,no,f,v,i,no,a,fiva,Controls,bilabial,StopControls,,,,,0,9,9,29,,,,,Yes,1.757,12,m,22,59.8179634843,none,American English,VSH_Exp2,2015_Jun_15_1705,
Recordings/pifi.wav,no,p,f,i,yes,i,pifi,Controls,bilabial,VoicingControls,,,,,0,10,10,46,,,,,No,1.423,12,m,22,59.8179634843,none,American English,VSH_Exp2,2015_Jun_15_1705,
Recordings/sasu.wav,no,s,s,a,no,u,sasu,Test,alveolar,OldTestStimuli,,,,,0,11,11,7,,,,,Yes,1.49,12,m,22,59.8179634843,none,American English,VSH_Exp2,2015_Jun_15_1705,
Recordings/duti.wav,yes,d,t,u,yes,i,duti,Controls,alveolar,StopControls,,,,,0,12,12,31,,,,,No,2.092,12,m,22,59.8179634843,none,American English,VSH_Exp2,2015_Jun_15_1705,
Recordings/tubu.wav,no,t,b,u,yes,u,tubu,Controls,alveolar,StopControls,,,,,0,13,13,25,,,,,Yes,2.911,12,m,22,59.8179634843,none,American English,VSH_Exp2,2015_Jun_15_1705,
Recordings/zavu.wav,yes,z,v,a,no,u,zavu,Test,alveolar,NewTestStimuli,,,,,0,14,14,13,,,,,Yes,1.256,12,m,22,59.8179634843,none,American English,VSH_Exp2,2015_Jun_15_1705,
Recordings/zivu.wav,yes,z,v,i,no,u,zivu,Test,alveolar,NewTestStimuli,,,,,0,15,15,18,,,,,Yes,1.156,12,m,22,59.8179634843,none,American English,VSH_Exp2,2015_Jun_15_1705,
Recordings/tadi.wav,no,t,d,a,yes,i,tadi,Controls,alveolar,StopControls,,,,,0,16,16,30,,,,,No,1.44,12,m,22,59.8179634843,none,American English,VSH_Exp2,2015_Jun_15_1705,
Recordings/bufu.wav,yes,b,f,u,yes,u,bufu,Controls,bilabial,NoPatternControls,,,,,0,17,17,59,,,,,Yes,1.39,12,m,22,59.8179634843,none,American English,VSH_Exp2,2015_Jun_15_1705,
Recordings/zuti.wav,yes,z,t,u,no,i,zuti,Controls,alveolar,NoPatternControls,,,,,0,18,18,48,,,,,Yes,0.872,12,m,22,59.8179634843,none,American English,VSH_Exp2,2015_Jun_15_1705,
Recordings/vuzu.wav,yes,v,z,u,no,u,vuzu,Test,bilabial,NewTestStimuli,,,,,0,19,19,20,,,,,No,1.323,12,m,22,59.8179634843,none,American English,VSH_Exp2,2015_Jun_15_1705,
Recordings/pibi.wav,no,p,b,i,yes,i,pibi,Controls,bilabial,StopControls,,,,,0,20,20,34,,,,,No,1.239,12,m,22,59.8179634843,none,American English,VSH_Exp2,2015_Jun_15_1705,
Recordings/dida.wav,yes,d,d,i,yes,a,dida,Test,alveolar,OldTestStimuli,,,,,0,21,21,5,,,,,Yes,1.908,12,m,22,59.8179634843,none,American English,VSH_Exp2,2015_Jun_15_1705,
Recordings/dizu.wav,yes,d,z,i,yes,u,dizu,Controls,alveolar,VoicingControls,,,,,0,22,22,40,,,,,Yes,1.272,12,m,22,59.8179634843,none,American English,VSH_Exp2,2015_Jun_15_1705,
Recordings/vaza.wav,yes,v,z,a,no,a,vaza,Test,bilabial,NewTestStimuli,,,,,0,23,23,14,,,,,No,1.858,12,m,22,59.8179634843,none,American English,VSH_Exp2,2015_Jun_15_1705,
Recordings/bava.wav,yes,b,v,a,yes,a,bava,Controls,bilabial,VoicingControls,,,,,0,24,24,47,,,,,No,2.243,12,m,22,59.8179634843,none,American English,VSH_Exp2,2015_Jun_15_1705,
Recordings/zuvi.wav,yes,z,v,u,no,i,zuvi,Test,alveolar,NewTestStimuli,,,,,0,25,25,12,,,,,No,1.524,12,m,22,59.8179634843,none,American English,VSH_Exp2,2015_Jun_15_1705,
Recordings/fasu.wav,no,f,s,a,no,u,fasu,Test,bilabial,OldTestStimuli,,,,,0,26,26,9,,,,,Yes,1.056,12,m,22,59.8179634843,none,American English,VSH_Exp2,2015_Jun_15_1705,
Recordings/vavi.wav,yes,v,v,a,no,i,vavi,Test,bilabial,OldTestStimuli,,,,,0,27,27,11,,,,,Yes,1.089,12,m,22,59.8179634843,none,American English,VSH_Exp2,2015_Jun_15_1705,
Recordings/budi.wav,yes,b,d,u,yes,i,budi,Test,bilabial,OldTestStimuli,,,,,0,28,28,6,,,,,Yes,0.955,12,m,22,59.8179634843,none,American English,VSH_Exp2,2015_Jun_15_1705,
Recordings/tuti.wav,no,t,t,u,yes,i,tuti,Test,alveolar,OldTestStimuli,,,,,0,29,29,3,,,,,Yes,0.755,12,m,22,59.8179634843,none,American English,VSH_Exp2,2015_Jun_15_1705,
Recordings/pizi.wav,no,p,z,i,yes,i,pizi,Controls,bilabial,NoPatternControls,,,,,0,30,30,58,,,,,Yes,0.855,12,m,22,59.8179634843,none,American English,VSH_Exp2,2015_Jun_15_1705,
Recordings/vuva.wav,yes,v,v,u,no,a,vuva,Test,bilabial,OldTestStimuli,,,,,0,31,31,0,,,,,Yes,0.721,12,m,22,59.8179634843,none,American English,VSH_Exp2,2015_Jun_15_1705,
Recordings/zada.wav,yes,z,d,a,no,a,zada,Controls,alveolar,VoicingControls,,,,,0,32,32,36,,,,,No,1.809,12,m,22,59.8179634843,none,American English,VSH_Exp2,2015_Jun_15_1705,
Recordings/vuzi.wav,yes,v,z,u,no,i,vuzi,Test,bilabial,NewTestStimuli,,,,,0,33,33,15,,,,,Yes,1.173,12,m,22,59.8179634843,none,American English,VSH_Exp2,2015_Jun_15_1705,
Recordings/supi.wav,no,s,p,u,no,i,supi,Controls,alveolar,VoicingControls,,,,,0,34,34,39,,,,,No,1.34,12,m,22,59.8179634843,none,American English,VSH_Exp2,2015_Jun_15_1705,
Recordings/dufu.wav,yes,d,f,u,yes,u,dufu,Controls,alveolar,NoPatternControls,,,,,0,35,35,50,,,,,Yes,1.808,12,m,22,59.8179634843,none,American English,VSH_Exp2,2015_Jun_15_1705,
Recordings/zasa.wav,yes,z,s,a,no,a,zasa,Controls,alveolar,StopControls,,,,,0,36,36,24,,,,,No,1.173,12,m,22,59.8179634843,none,American English,VSH_Exp2,2015_Jun_15_1705,
Recordings/sudi.wav,no,s,d,u,no,i,sudi,Controls,alveolar,NoPatternControls,,,,,0,37,37,51,,,,,No,3.329,12,m,22,59.8179634843,none,American English,VSH_Exp2,2015_Jun_15_1705,
Recordings/buba.wav,yes,b,b,u,yes,a,buba,Test,bilabial,OldTestStimuli,,,,,0,38,38,1,,,,,Yes,2.075,12,m,22,59.8179634843,none,American English,VSH_Exp2,2015_Jun_15_1705,
Recordings/suva.wav,no,s,v,u,no,a,suva,Controls,alveolar,StopControls,,,,,0,39,39,27,,,,,No,1.557,12,m,22,59.8179634843,none,American English,VSH_Exp2,2015_Jun_15_1705,
Recordings/duvu.wav,yes,d,v,u,yes,u,duvu,Controls,alveolar,VoicingControls,,,,,0,40,40,38,,,,,No,1.089,12,m,22,59.8179634843,none,American English,VSH_Exp2,2015_Jun_15_1705,
Recordings/bapa.wav,yes,b,p,a,yes,a,bapa,Controls,bilabial,StopControls,,,,,0,41,41,35,,,,,No,1.206,12,m,22,59.8179634843,none,American English,VSH_Exp2,2015_Jun_15_1705,
Recordings/tuzu.wav,no,t,z,u,yes,u,tuzu,Controls,alveolar,NoPatternControls,,,,,0,42,42,54,,,,,No,1.657,12,m,22,59.8179634843,none,American English,VSH_Exp2,2015_Jun_15_1705,
Recordings/tisu.wav,no,t,s,i,yes,u,tisu,Controls,alveolar,VoicingControls,,,,,0,43,43,37,,,,,No,1.306,12,m,22,59.8179634843,none,American English,VSH_Exp2,2015_Jun_15_1705,
Recordings/vazu.wav,yes,v,z,a,no,u,vazu,Test,bilabial,NewTestStimuli,,,,,0,44,44,23,,,,,No,1.674,12,m,22,59.8179634843,none,American English,VSH_Exp2,2015_Jun_15_1705,
Recordings/ziza.wav,yes,z,z,i,no,a,ziza,Test,alveolar,OldTestStimuli,,,,,0,45,45,10,,,,,Yes,1.323,12,m,22,59.8179634843,none,American English,VSH_Exp2,2015_Jun_15_1705,
Recordings/dutu.wav,yes,d,t,u,yes,u,dutu,Controls,alveolar,StopControls,,,,,0,46,46,33,,,,,Yes,1.273,12,m,22,59.8179634843,none,American English,VSH_Exp2,2015_Jun_15_1705,
Recordings/fuvi.wav,no,f,v,u,no,i,fuvi,Controls,bilabial,StopControls,,,,,0,47,47,32,,,,,No,1.574,12,m,22,59.8179634843,none,American English,VSH_Exp2,2015_Jun_15_1705,
Recordings/duzu.wav,yes,d,z,u,yes,u,duzu,Controls,alveolar,VoicingControls,,,,,0,48,48,45,,,,,No,1.808,12,m,22,59.8179634843,none,American English,VSH_Exp2,2015_Jun_15_1705,
Recordings/zivi.wav,yes,z,v,i,no,i,zivi,Test,alveolar,NewTestStimuli,,,,,0,49,49,19,,,,,Yes,1.607,12,m,22,59.8179634843,none,American English,VSH_Exp2,2015_Jun_15_1705,
Recordings/dibi.wav,yes,d,b,i,yes,i,dibi,Test,alveolar,OldTestStimuli,,,,,0,50,50,8,,,,,Yes,0.989,12,m,22,59.8179634843,none,American English,VSH_Exp2,2015_Jun_15_1705,
Recordings/dasi.wav,yes,d,s,a,yes,i,dasi,Controls,alveolar,NoPatternControls,,,,,0,51,51,57,,,,,Yes,1.189,12,m,22,59.8179634843,none,American English,VSH_Exp2,2015_Jun_15_1705,
Recordings/dupu.wav,yes,d,p,u,yes,u,dupu,Controls,alveolar,StopControls,,,,,0,52,52,26,,,,,Yes,0.972,12,m,22,59.8179634843,none,American English,VSH_Exp2,2015_Jun_15_1705,
Recordings/viza.wav,yes,v,z,i,no,a,viza,Test,bilabial,NewTestStimuli,,,,,0,53,53,17,,,,,Yes,0.888,12,m,22,59.8179634843,none,American English,VSH_Exp2,2015_Jun_15_1705,
Recordings/fufa.wav,no,f,f,u,no,a,fufa,Test,bilabial,OldTestStimuli,,,,,0,54,54,2,,,,,Yes,0.872,12,m,22,59.8179634843,none,American English,VSH_Exp2,2015_Jun_15_1705,
Recordings/fadu.wav,no,f,d,a,no,u,fadu,Controls,bilabial,NoPatternControls,,,,,0,55,55,56,,,,,Yes,0.939,12,m,22,59.8179634843,none,American English,VSH_Exp2,2015_Jun_15_1705,
Recordings/tusu.wav,no,t,s,u,yes,u,tusu,Controls,alveolar,VoicingControls,,,,,0,56,56,42,,,,,Yes,0.838,12,m,22,59.8179634843,none,American English,VSH_Exp2,2015_Jun_15_1705,
Recordings/fipu.wav,no,f,p,i,no,u,fipu,Controls,bilabial,VoicingControls,,,,,0,57,57,41,,,,,Yes,0.972,12,m,22,59.8179634843,none,American English,VSH_Exp2,2015_Jun_15_1705,
Recordings/dafu.wav,yes,d,f,a,yes,u,dafu,Controls,alveolar,NoPatternControls,,,,,0,58,58,52,,,,,Yes,0.755,12,m,22,59.8179634843,none,American English,VSH_Exp2,2015_Jun_15_1705,
Recordings/vazi.wav,yes,v,z,a,no,i,vazi,Test,bilabial,NewTestStimuli,,,,,0,59,59,21,,,,,Yes,1.122,12,m,22,59.8179634843,none,American English,VSH_Exp2,2015_Jun_15_1705,
