SOUND,VOICING,SEGMENT,SEGMENT3,SEGMENT2,STOP,SEGMENT4,STIMULUS,GENERAL_TYPE,PLACE,TYPE,trials.thisRepN,trials.thisTrialN,trials.thisN,trials.thisIndex,trials_2.thisRepN,trials_2.thisTrialN,trials_2.thisN,trials_2.thisIndex,SpaceBar.keys,SpaceBar.rt,key_resp_2.keys,key_resp_2.rt,rating.response,rating.rt,participant,Gender,Age,frameRate,OtherLanguages,NativeLanguage,expName,date,
,,,,,,,,,,,,,,,,,,,space,46.4908289909,,,,,21,M,20,59.803293648,,American English,VSH_Exp2,2015_Jun_18_1044,
Recordings/sasi.wav,no,s,s,a,no,i,sasi,Training,alveolar,TrainingItems,0,0,0,73,,,,,,,,,,,21,M,20,59.803293648,,American English,VSH_Exp2,2015_Jun_18_1044,
Recordings/fafi.wav,no,f,f,a,no,i,fafi,Training,bilabial,TrainingItems,0,1,1,56,,,,,,,,,,,21,M,20,59.803293648,,American English,VSH_Exp2,2015_Jun_18_1044,
Recordings/bibu.wav,yes,b,b,i,yes,u,bibu,Training,bilabial,TrainingItems,0,2,2,97,,,,,,,,,,,21,M,20,59.803293648,,American English,VSH_Exp2,2015_Jun_18_1044,
Recordings/dabu.wav,yes,d,b,a,yes,u,dabu,Training,alveolar,TrainingItems,0,3,3,82,,,,,,,,,,,21,M,20,59.803293648,,American English,VSH_Exp2,2015_Jun_18_1044,
Recordings/pupu.wav,no,p,p,u,yes,u,pupu,Training,bilabial,TrainingItems,0,4,4,26,,,,,,,,,,,21,M,20,59.803293648,,American English,VSH_Exp2,2015_Jun_18_1044,
Recordings/dadi.wav,yes,d,d,a,yes,i,dadi,Training,alveolar,TrainingItems,0,5,5,6,,,,,,,,,,,21,M,20,59.803293648,,American English,VSH_Exp2,2015_Jun_18_1044,
Recordings/titu.wav,no,t,t,i,yes,u,titu,Training,alveolar,TrainingItems,0,6,6,47,,,,,,,,,,,21,M,20,59.803293648,,American English,VSH_Exp2,2015_Jun_18_1044,
Recordings/vuzu.wav,yes,v,z,u,no,u,vuzu,Training,bilabial,TrainingItems,0,7,7,42,,,,,,,,,,,21,M,20,59.803293648,,American English,VSH_Exp2,2015_Jun_18_1044,
Recordings/babu.wav,yes,b,b,a,yes,u,babu,Training,bilabial,TrainingItems,0,8,8,33,,,,,,,,,,,21,M,20,59.803293648,,American English,VSH_Exp2,2015_Jun_18_1044,
Recordings/pipi.wav,no,p,p,i,yes,i,pipi,Training,bilabial,TrainingItems,0,9,9,71,,,,,,,,,,,21,M,20,59.803293648,,American English,VSH_Exp2,2015_Jun_18_1044,
Recordings/daba.wav,yes,d,b,a,yes,a,daba,Training,alveolar,TrainingItems,0,10,10,17,,,,,,,,,,,21,M,20,59.803293648,,American English,VSH_Exp2,2015_Jun_18_1044,
Recordings/papu.wav,no,p,p,a,yes,u,papu,Training,bilabial,TrainingItems,0,11,11,77,,,,,,,,,,,21,M,20,59.803293648,,American English,VSH_Exp2,2015_Jun_18_1044,
Recordings/duda.wav,yes,d,d,u,yes,a,duda,Training,alveolar,TrainingItems,0,12,12,75,,,,,,,,,,,21,M,20,59.803293648,,American English,VSH_Exp2,2015_Jun_18_1044,
Recordings/dudi.wav,yes,d,d,u,yes,i,dudi,Training,alveolar,TrainingItems,0,13,13,23,,,,,,,,,,,21,M,20,59.803293648,,American English,VSH_Exp2,2015_Jun_18_1044,
Recordings/vuzi.wav,yes,v,z,u,no,i,vuzi,Training,bilabial,TrainingItems,0,14,14,14,,,,,,,,,,,21,M,20,59.803293648,,American English,VSH_Exp2,2015_Jun_18_1044,
Recordings/ziza.wav,yes,z,z,i,no,a,ziza,Training,alveolar,TrainingItems,0,15,15,76,,,,,,,,,,,21,M,20,59.803293648,,American English,VSH_Exp2,2015_Jun_18_1044,
Recordings/budu.wav,yes,b,d,u,yes,u,budu,Training,bilabial,TrainingItems,0,16,16,59,,,,,,,,,,,21,M,20,59.803293648,,American English,VSH_Exp2,2015_Jun_18_1044,
Recordings/pata.wav,no,p,t,a,yes,a,pata,Training,bilabial,TrainingItems,0,17,17,55,,,,,,,,,,,21,M,20,59.803293648,,American English,VSH_Exp2,2015_Jun_18_1044,
Recordings/tapa.wav,no,t,p,a,yes,a,tapa,Training,alveolar,TrainingItems,0,18,18,49,,,,,,,,,,,21,M,20,59.803293648,,American English,VSH_Exp2,2015_Jun_18_1044,
Recordings/patu.wav,no,p,t,a,yes,u,patu,Training,bilabial,TrainingItems,0,19,19,69,,,,,,,,,,,21,M,20,59.803293648,,American English,VSH_Exp2,2015_Jun_18_1044,
Recordings/zavu.wav,yes,z,v,a,no,u,zavu,Training,alveolar,TrainingItems,0,20,20,63,,,,,,,,,,,21,M,20,59.803293648,,American English,VSH_Exp2,2015_Jun_18_1044,
Recordings/bidu.wav,yes,b,d,i,yes,u,bidu,Training,bilabial,TrainingItems,0,21,21,57,,,,,,,,,,,21,M,20,59.803293648,,American English,VSH_Exp2,2015_Jun_18_1044,
Recordings/dudu.wav,yes,d,d,u,yes,u,dudu,Training,alveolar,TrainingItems,0,22,22,20,,,,,,,,,,,21,M,20,59.803293648,,American English,VSH_Exp2,2015_Jun_18_1044,
Recordings/dada.wav,yes,d,d,a,yes,a,dada,Training,alveolar,TrainingItems,0,23,23,48,,,,,,,,,,,21,M,20,59.803293648,,American English,VSH_Exp2,2015_Jun_18_1044,
Recordings/buda.wav,yes,b,d,u,yes,a,buda,Training,bilabial,TrainingItems,0,24,24,9,,,,,,,,,,,21,M,20,59.803293648,,American English,VSH_Exp2,2015_Jun_18_1044,
Recordings/biba.wav,yes,b,b,i,yes,a,biba,Training,bilabial,TrainingItems,0,25,25,22,,,,,,,,,,,21,M,20,59.803293648,,American English,VSH_Exp2,2015_Jun_18_1044,
Recordings/bubu.wav,yes,b,b,u,yes,u,bubu,Training,bilabial,TrainingItems,0,26,26,2,,,,,,,,,,,21,M,20,59.803293648,,American English,VSH_Exp2,2015_Jun_18_1044,
Recordings/dabi.wav,yes,d,b,a,yes,i,dabi,Training,alveolar,TrainingItems,0,27,27,7,,,,,,,,,,,21,M,20,59.803293648,,American English,VSH_Exp2,2015_Jun_18_1044,
Recordings/fifi.wav,no,f,f,i,no,i,fifi,Training,bilabial,TrainingItems,0,28,28,41,,,,,,,,,,,21,M,20,59.803293648,,American English,VSH_Exp2,2015_Jun_18_1044,
Recordings/tapu.wav,no,t,p,a,yes,u,tapu,Training,alveolar,TrainingItems,0,29,29,95,,,,,,,,,,,21,M,20,59.803293648,,American English,VSH_Exp2,2015_Jun_18_1044,
Recordings/fifu.wav,no,f,f,i,no,u,fifu,Training,bilabial,TrainingItems,0,30,30,58,,,,,,,,,,,21,M,20,59.803293648,,American English,VSH_Exp2,2015_Jun_18_1044,
Recordings/tupu.wav,no,t,p,u,yes,u,tupu,Training,alveolar,TrainingItems,0,31,31,98,,,,,,,,,,,21,M,20,59.803293648,,American English,VSH_Exp2,2015_Jun_18_1044,
Recordings/sisi.wav,no,s,s,i,no,i,sisi,Training,alveolar,TrainingItems,0,32,32,70,,,,,,,,,,,21,M,20,59.803293648,,American English,VSH_Exp2,2015_Jun_18_1044,
Recordings/zuza.wav,yes,z,z,u,no,a,zuza,Training,alveolar,TrainingItems,0,33,33,39,,,,,,,,,,,21,M,20,59.803293648,,American English,VSH_Exp2,2015_Jun_18_1044,
Recordings/vuva.wav,yes,v,v,u,no,a,vuva,Training,bilabial,TrainingItems,0,34,34,43,,,,,,,,,,,21,M,20,59.803293648,,American English,VSH_Exp2,2015_Jun_18_1044,
Recordings/susi.wav,no,s,s,u,no,i,susi,Training,alveolar,TrainingItems,0,35,35,27,,,,,,,,,,,21,M,20,59.803293648,,American English,VSH_Exp2,2015_Jun_18_1044,
Recordings/zava.wav,yes,z,v,a,no,a,zava,Training,alveolar,TrainingItems,0,36,36,86,,,,,,,,,,,21,M,20,59.803293648,,American English,VSH_Exp2,2015_Jun_18_1044,
Recordings/sisa.wav,no,s,s,i,no,a,sisa,Training,alveolar,TrainingItems,0,37,37,72,,,,,,,,,,,21,M,20,59.803293648,,American English,VSH_Exp2,2015_Jun_18_1044,
Recordings/tuti.wav,no,t,t,u,yes,i,tuti,Training,alveolar,TrainingItems,0,38,38,19,,,,,,,,,,,21,M,20,59.803293648,,American English,VSH_Exp2,2015_Jun_18_1044,
Recordings/dibu.wav,yes,d,b,i,yes,u,dibu,Training,alveolar,TrainingItems,0,39,39,30,,,,,,,,,,,21,M,20,59.803293648,,American English,VSH_Exp2,2015_Jun_18_1044,
Recordings/dubu.wav,yes,d,b,u,yes,u,dubu,Training,alveolar,TrainingItems,0,40,40,13,,,,,,,,,,,21,M,20,59.803293648,,American English,VSH_Exp2,2015_Jun_18_1044,
Recordings/fufa.wav,no,f,f,u,no,a,fufa,Training,bilabial,TrainingItems,0,41,41,78,,,,,,,,,,,21,M,20,59.803293648,,American English,VSH_Exp2,2015_Jun_18_1044,
Recordings/papi.wav,no,p,p,a,yes,i,papi,Training,bilabial,TrainingItems,0,42,42,5,,,,,,,,,,,21,M,20,59.803293648,,American English,VSH_Exp2,2015_Jun_18_1044,
Recordings/vuza.wav,yes,v,z,u,no,a,vuza,Training,bilabial,TrainingItems,0,43,43,83,,,,,,,,,,,21,M,20,59.803293648,,American English,VSH_Exp2,2015_Jun_18_1044,
Recordings/tutu.wav,no,t,t,u,yes,u,tutu,Training,alveolar,TrainingItems,0,44,44,67,,,,,,,,,,,21,M,20,59.803293648,,American English,VSH_Exp2,2015_Jun_18_1044,
Recordings/zuvu.wav,yes,z,v,u,no,u,zuvu,Training,alveolar,TrainingItems,0,45,45,31,,,,,,,,,,,21,M,20,59.803293648,,American English,VSH_Exp2,2015_Jun_18_1044,
Recordings/tipi.wav,no,t,p,i,yes,i,tipi,Training,alveolar,TrainingItems,0,46,46,88,,,,,,,,,,,21,M,20,59.803293648,,American English,VSH_Exp2,2015_Jun_18_1044,
Recordings/pipa.wav,no,p,p,i,yes,a,pipa,Training,bilabial,TrainingItems,0,47,47,52,,,,,,,,,,,21,M,20,59.803293648,,American English,VSH_Exp2,2015_Jun_18_1044,
Recordings/susu.wav,no,s,s,u,no,u,susu,Training,alveolar,TrainingItems,0,48,48,66,,,,,,,,,,,21,M,20,59.803293648,,American English,VSH_Exp2,2015_Jun_18_1044,
Recordings/fufu.wav,no,f,f,u,no,u,fufu,Training,bilabial,TrainingItems,0,49,49,50,,,,,,,,,,,21,M,20,59.803293648,,American English,VSH_Exp2,2015_Jun_18_1044,
Recordings/zaza.wav,yes,z,z,a,no,a,zaza,Training,alveolar,TrainingItems,0,50,50,87,,,,,,,,,,,21,M,20,59.803293648,,American English,VSH_Exp2,2015_Jun_18_1044,
Recordings/vava.wav,yes,v,v,a,no,a,vava,Training,bilabial,TrainingItems,0,51,51,32,,,,,,,,,,,21,M,20,59.803293648,,American English,VSH_Exp2,2015_Jun_18_1044,
Recordings/zivi.wav,yes,z,v,i,no,i,zivi,Training,alveolar,TrainingItems,0,52,52,21,,,,,,,,,,,21,M,20,59.803293648,,American English,VSH_Exp2,2015_Jun_18_1044,
Recordings/bada.wav,yes,b,d,a,yes,a,bada,Training,bilabial,TrainingItems,0,53,53,38,,,,,,,,,,,21,M,20,59.803293648,,American English,VSH_Exp2,2015_Jun_18_1044,
Recordings/sasa.wav,no,s,s,a,no,a,sasa,Training,alveolar,TrainingItems,0,54,54,34,,,,,,,,,,,21,M,20,59.803293648,,American English,VSH_Exp2,2015_Jun_18_1044,
Recordings/didi.wav,yes,d,d,i,yes,i,didi,Training,alveolar,TrainingItems,0,55,55,28,,,,,,,,,,,21,M,20,59.803293648,,American English,VSH_Exp2,2015_Jun_18_1044,
Recordings/sisu.wav,no,s,s,i,no,u,sisu,Training,alveolar,TrainingItems,0,56,56,61,,,,,,,,,,,21,M,20,59.803293648,,American English,VSH_Exp2,2015_Jun_18_1044,
Recordings/fafa.wav,no,f,f,a,no,a,fafa,Training,bilabial,TrainingItems,0,57,57,18,,,,,,,,,,,21,M,20,59.803293648,,American English,VSH_Exp2,2015_Jun_18_1044,
Recordings/buba.wav,yes,b,b,u,yes,a,buba,Training,bilabial,TrainingItems,0,58,58,0,,,,,,,,,,,21,M,20,59.803293648,,American English,VSH_Exp2,2015_Jun_18_1044,
Recordings/zazi.wav,yes,z,z,a,no,i,zazi,Training,alveolar,TrainingItems,0,59,59,64,,,,,,,,,,,21,M,20,59.803293648,,American English,VSH_Exp2,2015_Jun_18_1044,
Recordings/vivi.wav,yes,v,v,i,no,i,vivi,Training,bilabial,TrainingItems,0,60,60,68,,,,,,,,,,,21,M,20,59.803293648,,American English,VSH_Exp2,2015_Jun_18_1044,
Recordings/vizi.wav,yes,v,z,i,no,i,vizi,Training,bilabial,TrainingItems,0,61,61,3,,,,,,,,,,,21,M,20,59.803293648,,American English,VSH_Exp2,2015_Jun_18_1044,
Recordings/dubi.wav,yes,d,b,u,yes,i,dubi,Training,alveolar,TrainingItems,0,62,62,90,,,,,,,,,,,21,M,20,59.803293648,,American English,VSH_Exp2,2015_Jun_18_1044,
Recordings/bubi.wav,yes,b,b,u,yes,i,bubi,Training,bilabial,TrainingItems,0,63,63,16,,,,,,,,,,,21,M,20,59.803293648,,American English,VSH_Exp2,2015_Jun_18_1044,
Recordings/dadu.wav,yes,d,d,a,yes,u,dadu,Training,alveolar,TrainingItems,0,64,64,62,,,,,,,,,,,21,M,20,59.803293648,,American English,VSH_Exp2,2015_Jun_18_1044,
Recordings/susa.wav,no,s,s,u,no,a,susa,Training,alveolar,TrainingItems,0,65,65,65,,,,,,,,,,,21,M,20,59.803293648,,American English,VSH_Exp2,2015_Jun_18_1044,
Recordings/vavu.wav,yes,v,v,a,no,u,vavu,Training,bilabial,TrainingItems,0,66,66,99,,,,,,,,,,,21,M,20,59.803293648,,American English,VSH_Exp2,2015_Jun_18_1044,
Recordings/vuvi.wav,yes,v,v,u,no,i,vuvi,Training,bilabial,TrainingItems,0,67,67,40,,,,,,,,,,,21,M,20,59.803293648,,American English,VSH_Exp2,2015_Jun_18_1044,
Recordings/baba.wav,yes,b,b,a,yes,a,baba,Training,bilabial,TrainingItems,0,68,68,89,,,,,,,,,,,21,M,20,59.803293648,,American English,VSH_Exp2,2015_Jun_18_1044,
Recordings/pupa.wav,no,p,p,u,yes,a,pupa,Training,bilabial,TrainingItems,0,69,69,44,,,,,,,,,,,21,M,20,59.803293648,,American English,VSH_Exp2,2015_Jun_18_1044,
Recordings/pitu.wav,no,p,t,i,yes,u,pitu,Training,bilabial,TrainingItems,0,70,70,93,,,,,,,,,,,21,M,20,59.803293648,,American English,VSH_Exp2,2015_Jun_18_1044,
Recordings/zivu.wav,yes,z,v,i,no,u,zivu,Training,alveolar,TrainingItems,0,71,71,84,,,,,,,,,,,21,M,20,59.803293648,,American English,VSH_Exp2,2015_Jun_18_1044,
Recordings/viva.wav,yes,v,v,i,no,a,viva,Training,bilabial,TrainingItems,0,72,72,94,,,,,,,,,,,21,M,20,59.803293648,,American English,VSH_Exp2,2015_Jun_18_1044,
Recordings/tupi.wav,no,t,p,u,yes,i,tupi,Training,alveolar,TrainingItems,0,73,73,25,,,,,,,,,,,21,M,20,59.803293648,,American English,VSH_Exp2,2015_Jun_18_1044,
Recordings/dibi.wav,yes,d,b,i,yes,i,dibi,Training,alveolar,TrainingItems,0,74,74,15,,,,,,,,,,,21,M,20,59.803293648,,American English,VSH_Exp2,2015_Jun_18_1044,
Recordings/tipu.wav,no,t,p,i,yes,u,tipu,Training,alveolar,TrainingItems,0,75,75,24,,,,,,,,,,,21,M,20,59.803293648,,American English,VSH_Exp2,2015_Jun_18_1044,
Recordings/tupa.wav,no,t,p,u,yes,a,tupa,Training,alveolar,TrainingItems,0,76,76,8,,,,,,,,,,,21,M,20,59.803293648,,American English,VSH_Exp2,2015_Jun_18_1044,
Recordings/vazu.wav,yes,v,z,a,no,u,vazu,Training,bilabial,TrainingItems,0,77,77,1,,,,,,,,,,,21,M,20,59.803293648,,American English,VSH_Exp2,2015_Jun_18_1044,
Recordings/pupi.wav,no,p,p,u,yes,i,pupi,Training,bilabial,TrainingItems,0,78,78,11,,,,,,,,,,,21,M,20,59.803293648,,American English,VSH_Exp2,2015_Jun_18_1044,
Recordings/papa.wav,no,p,p,a,yes,a,papa,Training,bilabial,TrainingItems,0,79,79,35,,,,,,,,,,,21,M,20,59.803293648,,American English,VSH_Exp2,2015_Jun_18_1044,
Recordings/bidi.wav,yes,b,d,i,yes,i,bidi,Training,bilabial,TrainingItems,0,80,80,37,,,,,,,,,,,21,M,20,59.803293648,,American English,VSH_Exp2,2015_Jun_18_1044,
Recordings/vizu.wav,yes,v,z,i,no,u,vizu,Training,bilabial,TrainingItems,0,81,81,92,,,,,,,,,,,21,M,20,59.803293648,,American English,VSH_Exp2,2015_Jun_18_1044,
Recordings/pipu.wav,no,p,p,i,yes,u,pipu,Training,bilabial,TrainingItems,0,82,82,81,,,,,,,,,,,21,M,20,59.803293648,,American English,VSH_Exp2,2015_Jun_18_1044,
Recordings/sasu.wav,no,s,s,a,no,u,sasu,Training,alveolar,TrainingItems,0,83,83,91,,,,,,,,,,,21,M,20,59.803293648,,American English,VSH_Exp2,2015_Jun_18_1044,
Recordings/badi.wav,yes,b,d,a,yes,i,badi,Training,bilabial,TrainingItems,0,84,84,54,,,,,,,,,,,21,M,20,59.803293648,,American English,VSH_Exp2,2015_Jun_18_1044,
Recordings/badu.wav,yes,b,d,a,yes,u,badu,Training,bilabial,TrainingItems,0,85,85,46,,,,,,,,,,,21,M,20,59.803293648,,American English,VSH_Exp2,2015_Jun_18_1044,
Recordings/fafu.wav,no,f,f,a,no,u,fafu,Training,bilabial,TrainingItems,0,86,86,79,,,,,,,,,,,21,M,20,59.803293648,,American English,VSH_Exp2,2015_Jun_18_1044,
Recordings/pati.wav,no,p,t,a,yes,i,pati,Training,bilabial,TrainingItems,0,87,87,4,,,,,,,,,,,21,M,20,59.803293648,,American English,VSH_Exp2,2015_Jun_18_1044,
Recordings/duba.wav,yes,d,b,u,yes,a,duba,Training,alveolar,TrainingItems,0,88,88,29,,,,,,,,,,,21,M,20,59.803293648,,American English,VSH_Exp2,2015_Jun_18_1044,
Recordings/bida.wav,yes,b,d,i,yes,a,bida,Training,bilabial,TrainingItems,0,89,89,60,,,,,,,,,,,21,M,20,59.803293648,,American English,VSH_Exp2,2015_Jun_18_1044,
Recordings/zazu.wav,yes,z,z,a,no,u,zazu,Training,alveolar,TrainingItems,0,90,90,74,,,,,,,,,,,21,M,20,59.803293648,,American English,VSH_Exp2,2015_Jun_18_1044,
Recordings/viza.wav,yes,v,z,i,no,a,viza,Training,bilabial,TrainingItems,0,91,91,45,,,,,,,,,,,21,M,20,59.803293648,,American English,VSH_Exp2,2015_Jun_18_1044,
Recordings/pita.wav,no,p,t,i,yes,a,pita,Training,bilabial,TrainingItems,0,92,92,96,,,,,,,,,,,21,M,20,59.803293648,,American English,VSH_Exp2,2015_Jun_18_1044,
Recordings/vazi.wav,yes,v,z,a,no,i,vazi,Training,bilabial,TrainingItems,0,93,93,85,,,,,,,,,,,21,M,20,59.803293648,,American English,VSH_Exp2,2015_Jun_18_1044,
Recordings/puta.wav,no,p,t,u,yes,a,puta,Training,bilabial,TrainingItems,0,94,94,51,,,,,,,,,,,21,M,20,59.803293648,,American English,VSH_Exp2,2015_Jun_18_1044,
Recordings/diba.wav,yes,d,b,i,yes,a,diba,Training,alveolar,TrainingItems,0,95,95,80,,,,,,,,,,,21,M,20,59.803293648,,American English,VSH_Exp2,2015_Jun_18_1044,
Recordings/tuta.wav,no,t,t,u,yes,a,tuta,Training,alveolar,TrainingItems,0,96,96,53,,,,,,,,,,,21,M,20,59.803293648,,American English,VSH_Exp2,2015_Jun_18_1044,
Recordings/vivu.wav,yes,v,v,i,no,u,vivu,Training,bilabial,TrainingItems,0,97,97,12,,,,,,,,,,,21,M,20,59.803293648,,American English,VSH_Exp2,2015_Jun_18_1044,
Recordings/zuva.wav,yes,z,v,u,no,a,zuva,Training,alveolar,TrainingItems,0,98,98,36,,,,,,,,,,,21,M,20,59.803293648,,American English,VSH_Exp2,2015_Jun_18_1044,
Recordings/zavi.wav,yes,z,v,a,no,i,zavi,Training,alveolar,TrainingItems,0,99,99,10,,,,,,,,,,,21,M,20,59.803293648,,American English,VSH_Exp2,2015_Jun_18_1044,
Recordings/vuzi.wav,yes,v,z,u,no,i,vuzi,Training,bilabial,TrainingItems,1,0,100,14,,,,,,,,,,,21,M,20,59.803293648,,American English,VSH_Exp2,2015_Jun_18_1044,
Recordings/tupu.wav,no,t,p,u,yes,u,tupu,Training,alveolar,TrainingItems,1,1,101,98,,,,,,,,,,,21,M,20,59.803293648,,American English,VSH_Exp2,2015_Jun_18_1044,
Recordings/pupa.wav,no,p,p,u,yes,a,pupa,Training,bilabial,TrainingItems,1,2,102,44,,,,,,,,,,,21,M,20,59.803293648,,American English,VSH_Exp2,2015_Jun_18_1044,
Recordings/tipu.wav,no,t,p,i,yes,u,tipu,Training,alveolar,TrainingItems,1,3,103,24,,,,,,,,,,,21,M,20,59.803293648,,American English,VSH_Exp2,2015_Jun_18_1044,
Recordings/bidu.wav,yes,b,d,i,yes,u,bidu,Training,bilabial,TrainingItems,1,4,104,57,,,,,,,,,,,21,M,20,59.803293648,,American English,VSH_Exp2,2015_Jun_18_1044,
Recordings/sasi.wav,no,s,s,a,no,i,sasi,Training,alveolar,TrainingItems,1,5,105,73,,,,,,,,,,,21,M,20,59.803293648,,American English,VSH_Exp2,2015_Jun_18_1044,
Recordings/pitu.wav,no,p,t,i,yes,u,pitu,Training,bilabial,TrainingItems,1,6,106,93,,,,,,,,,,,21,M,20,59.803293648,,American English,VSH_Exp2,2015_Jun_18_1044,
Recordings/papa.wav,no,p,p,a,yes,a,papa,Training,bilabial,TrainingItems,1,7,107,35,,,,,,,,,,,21,M,20,59.803293648,,American English,VSH_Exp2,2015_Jun_18_1044,
Recordings/vuvi.wav,yes,v,v,u,no,i,vuvi,Training,bilabial,TrainingItems,1,8,108,40,,,,,,,,,,,21,M,20,59.803293648,,American English,VSH_Exp2,2015_Jun_18_1044,
Recordings/zazi.wav,yes,z,z,a,no,i,zazi,Training,alveolar,TrainingItems,1,9,109,64,,,,,,,,,,,21,M,20,59.803293648,,American English,VSH_Exp2,2015_Jun_18_1044,
Recordings/tapu.wav,no,t,p,a,yes,u,tapu,Training,alveolar,TrainingItems,1,10,110,95,,,,,,,,,,,21,M,20,59.803293648,,American English,VSH_Exp2,2015_Jun_18_1044,
Recordings/puta.wav,no,p,t,u,yes,a,puta,Training,bilabial,TrainingItems,1,11,111,51,,,,,,,,,,,21,M,20,59.803293648,,American English,VSH_Exp2,2015_Jun_18_1044,
Recordings/bida.wav,yes,b,d,i,yes,a,bida,Training,bilabial,TrainingItems,1,12,112,60,,,,,,,,,,,21,M,20,59.803293648,,American English,VSH_Exp2,2015_Jun_18_1044,
Recordings/tuta.wav,no,t,t,u,yes,a,tuta,Training,alveolar,TrainingItems,1,13,113,53,,,,,,,,,,,21,M,20,59.803293648,,American English,VSH_Exp2,2015_Jun_18_1044,
Recordings/sasa.wav,no,s,s,a,no,a,sasa,Training,alveolar,TrainingItems,1,14,114,34,,,,,,,,,,,21,M,20,59.803293648,,American English,VSH_Exp2,2015_Jun_18_1044,
Recordings/zivi.wav,yes,z,v,i,no,i,zivi,Training,alveolar,TrainingItems,1,15,115,21,,,,,,,,,,,21,M,20,59.803293648,,American English,VSH_Exp2,2015_Jun_18_1044,
Recordings/dabu.wav,yes,d,b,a,yes,u,dabu,Training,alveolar,TrainingItems,1,16,116,82,,,,,,,,,,,21,M,20,59.803293648,,American English,VSH_Exp2,2015_Jun_18_1044,
Recordings/titu.wav,no,t,t,i,yes,u,titu,Training,alveolar,TrainingItems,1,17,117,47,,,,,,,,,,,21,M,20,59.803293648,,American English,VSH_Exp2,2015_Jun_18_1044,
Recordings/bubi.wav,yes,b,b,u,yes,i,bubi,Training,bilabial,TrainingItems,1,18,118,16,,,,,,,,,,,21,M,20,59.803293648,,American English,VSH_Exp2,2015_Jun_18_1044,
Recordings/vuzu.wav,yes,v,z,u,no,u,vuzu,Training,bilabial,TrainingItems,1,19,119,42,,,,,,,,,,,21,M,20,59.803293648,,American English,VSH_Exp2,2015_Jun_18_1044,
Recordings/dibu.wav,yes,d,b,i,yes,u,dibu,Training,alveolar,TrainingItems,1,20,120,30,,,,,,,,,,,21,M,20,59.803293648,,American English,VSH_Exp2,2015_Jun_18_1044,
Recordings/duba.wav,yes,d,b,u,yes,a,duba,Training,alveolar,TrainingItems,1,21,121,29,,,,,,,,,,,21,M,20,59.803293648,,American English,VSH_Exp2,2015_Jun_18_1044,
Recordings/sisa.wav,no,s,s,i,no,a,sisa,Training,alveolar,TrainingItems,1,22,122,72,,,,,,,,,,,21,M,20,59.803293648,,American English,VSH_Exp2,2015_Jun_18_1044,
Recordings/diba.wav,yes,d,b,i,yes,a,diba,Training,alveolar,TrainingItems,1,23,123,80,,,,,,,,,,,21,M,20,59.803293648,,American English,VSH_Exp2,2015_Jun_18_1044,
Recordings/fufu.wav,no,f,f,u,no,u,fufu,Training,bilabial,TrainingItems,1,24,124,50,,,,,,,,,,,21,M,20,59.803293648,,American English,VSH_Exp2,2015_Jun_18_1044,
Recordings/didi.wav,yes,d,d,i,yes,i,didi,Training,alveolar,TrainingItems,1,25,125,28,,,,,,,,,,,21,M,20,59.803293648,,American English,VSH_Exp2,2015_Jun_18_1044,
Recordings/sasu.wav,no,s,s,a,no,u,sasu,Training,alveolar,TrainingItems,1,26,126,91,,,,,,,,,,,21,M,20,59.803293648,,American English,VSH_Exp2,2015_Jun_18_1044,
Recordings/tupa.wav,no,t,p,u,yes,a,tupa,Training,alveolar,TrainingItems,1,27,127,8,,,,,,,,,,,21,M,20,59.803293648,,American English,VSH_Exp2,2015_Jun_18_1044,
Recordings/dibi.wav,yes,d,b,i,yes,i,dibi,Training,alveolar,TrainingItems,1,28,128,15,,,,,,,,,,,21,M,20,59.803293648,,American English,VSH_Exp2,2015_Jun_18_1044,
Recordings/zavu.wav,yes,z,v,a,no,u,zavu,Training,alveolar,TrainingItems,1,29,129,63,,,,,,,,,,,21,M,20,59.803293648,,American English,VSH_Exp2,2015_Jun_18_1044,
Recordings/baba.wav,yes,b,b,a,yes,a,baba,Training,bilabial,TrainingItems,1,30,130,89,,,,,,,,,,,21,M,20,59.803293648,,American English,VSH_Exp2,2015_Jun_18_1044,
Recordings/dada.wav,yes,d,d,a,yes,a,dada,Training,alveolar,TrainingItems,1,31,131,48,,,,,,,,,,,21,M,20,59.803293648,,American English,VSH_Exp2,2015_Jun_18_1044,
Recordings/zivu.wav,yes,z,v,i,no,u,zivu,Training,alveolar,TrainingItems,1,32,132,84,,,,,,,,,,,21,M,20,59.803293648,,American English,VSH_Exp2,2015_Jun_18_1044,
Recordings/tupi.wav,no,t,p,u,yes,i,tupi,Training,alveolar,TrainingItems,1,33,133,25,,,,,,,,,,,21,M,20,59.803293648,,American English,VSH_Exp2,2015_Jun_18_1044,
Recordings/vuva.wav,yes,v,v,u,no,a,vuva,Training,bilabial,TrainingItems,1,34,134,43,,,,,,,,,,,21,M,20,59.803293648,,American English,VSH_Exp2,2015_Jun_18_1044,
Recordings/sisu.wav,no,s,s,i,no,u,sisu,Training,alveolar,TrainingItems,1,35,135,61,,,,,,,,,,,21,M,20,59.803293648,,American English,VSH_Exp2,2015_Jun_18_1044,
Recordings/vizi.wav,yes,v,z,i,no,i,vizi,Training,bilabial,TrainingItems,1,36,136,3,,,,,,,,,,,21,M,20,59.803293648,,American English,VSH_Exp2,2015_Jun_18_1044,
Recordings/susu.wav,no,s,s,u,no,u,susu,Training,alveolar,TrainingItems,1,37,137,66,,,,,,,,,,,21,M,20,59.803293648,,American English,VSH_Exp2,2015_Jun_18_1044,
Recordings/vivu.wav,yes,v,v,i,no,u,vivu,Training,bilabial,TrainingItems,1,38,138,12,,,,,,,,,,,21,M,20,59.803293648,,American English,VSH_Exp2,2015_Jun_18_1044,
Recordings/susi.wav,no,s,s,u,no,i,susi,Training,alveolar,TrainingItems,1,39,139,27,,,,,,,,,,,21,M,20,59.803293648,,American English,VSH_Exp2,2015_Jun_18_1044,
Recordings/dubu.wav,yes,d,b,u,yes,u,dubu,Training,alveolar,TrainingItems,1,40,140,13,,,,,,,,,,,21,M,20,59.803293648,,American English,VSH_Exp2,2015_Jun_18_1044,
Recordings/zuvu.wav,yes,z,v,u,no,u,zuvu,Training,alveolar,TrainingItems,1,41,141,31,,,,,,,,,,,21,M,20,59.803293648,,American English,VSH_Exp2,2015_Jun_18_1044,
Recordings/babu.wav,yes,b,b,a,yes,u,babu,Training,bilabial,TrainingItems,1,42,142,33,,,,,,,,,,,21,M,20,59.803293648,,American English,VSH_Exp2,2015_Jun_18_1044,
Recordings/dadi.wav,yes,d,d,a,yes,i,dadi,Training,alveolar,TrainingItems,1,43,143,6,,,,,,,,,,,21,M,20,59.803293648,,American English,VSH_Exp2,2015_Jun_18_1044,
Recordings/daba.wav,yes,d,b,a,yes,a,daba,Training,alveolar,TrainingItems,1,44,144,17,,,,,,,,,,,21,M,20,59.803293648,,American English,VSH_Exp2,2015_Jun_18_1044,
Recordings/zuza.wav,yes,z,z,u,no,a,zuza,Training,alveolar,TrainingItems,1,45,145,39,,,,,,,,,,,21,M,20,59.803293648,,American English,VSH_Exp2,2015_Jun_18_1044,
Recordings/pipu.wav,no,p,p,i,yes,u,pipu,Training,bilabial,TrainingItems,1,46,146,81,,,,,,,,,,,21,M,20,59.803293648,,American English,VSH_Exp2,2015_Jun_18_1044,
Recordings/buba.wav,yes,b,b,u,yes,a,buba,Training,bilabial,TrainingItems,1,47,147,0,,,,,,,,,,,21,M,20,59.803293648,,American English,VSH_Exp2,2015_Jun_18_1044,
Recordings/fifu.wav,no,f,f,i,no,u,fifu,Training,bilabial,TrainingItems,1,48,148,58,,,,,,,,,,,21,M,20,59.803293648,,American English,VSH_Exp2,2015_Jun_18_1044,
Recordings/badu.wav,yes,b,d,a,yes,u,badu,Training,bilabial,TrainingItems,1,49,149,46,,,,,,,,,,,21,M,20,59.803293648,,American English,VSH_Exp2,2015_Jun_18_1044,
Recordings/ziza.wav,yes,z,z,i,no,a,ziza,Training,alveolar,TrainingItems,1,50,150,76,,,,,,,,,,,21,M,20,59.803293648,,American English,VSH_Exp2,2015_Jun_18_1044,
Recordings/pita.wav,no,p,t,i,yes,a,pita,Training,bilabial,TrainingItems,1,51,151,96,,,,,,,,,,,21,M,20,59.803293648,,American English,VSH_Exp2,2015_Jun_18_1044,
Recordings/zazu.wav,yes,z,z,a,no,u,zazu,Training,alveolar,TrainingItems,1,52,152,74,,,,,,,,,,,21,M,20,59.803293648,,American English,VSH_Exp2,2015_Jun_18_1044,
Recordings/vazi.wav,yes,v,z,a,no,i,vazi,Training,bilabial,TrainingItems,1,53,153,85,,,,,,,,,,,21,M,20,59.803293648,,American English,VSH_Exp2,2015_Jun_18_1044,
Recordings/vivi.wav,yes,v,v,i,no,i,vivi,Training,bilabial,TrainingItems,1,54,154,68,,,,,,,,,,,21,M,20,59.803293648,,American English,VSH_Exp2,2015_Jun_18_1044,
Recordings/fifi.wav,no,f,f,i,no,i,fifi,Training,bilabial,TrainingItems,1,55,155,41,,,,,,,,,,,21,M,20,59.803293648,,American English,VSH_Exp2,2015_Jun_18_1044,
Recordings/pupi.wav,no,p,p,u,yes,i,pupi,Training,bilabial,TrainingItems,1,56,156,11,,,,,,,,,,,21,M,20,59.803293648,,American English,VSH_Exp2,2015_Jun_18_1044,
Recordings/bidi.wav,yes,b,d,i,yes,i,bidi,Training,bilabial,TrainingItems,1,57,157,37,,,,,,,,,,,21,M,20,59.803293648,,American English,VSH_Exp2,2015_Jun_18_1044,
Recordings/vava.wav,yes,v,v,a,no,a,vava,Training,bilabial,TrainingItems,1,58,158,32,,,,,,,,,,,21,M,20,59.803293648,,American English,VSH_Exp2,2015_Jun_18_1044,
Recordings/pata.wav,no,p,t,a,yes,a,pata,Training,bilabial,TrainingItems,1,59,159,55,,,,,,,,,,,21,M,20,59.803293648,,American English,VSH_Exp2,2015_Jun_18_1044,
Recordings/dudu.wav,yes,d,d,u,yes,u,dudu,Training,alveolar,TrainingItems,1,60,160,20,,,,,,,,,,,21,M,20,59.803293648,,American English,VSH_Exp2,2015_Jun_18_1044,
Recordings/fafa.wav,no,f,f,a,no,a,fafa,Training,bilabial,TrainingItems,1,61,161,18,,,,,,,,,,,21,M,20,59.803293648,,American English,VSH_Exp2,2015_Jun_18_1044,
Recordings/bada.wav,yes,b,d,a,yes,a,bada,Training,bilabial,TrainingItems,1,62,162,38,,,,,,,,,,,21,M,20,59.803293648,,American English,VSH_Exp2,2015_Jun_18_1044,
Recordings/fafu.wav,no,f,f,a,no,u,fafu,Training,bilabial,TrainingItems,1,63,163,79,,,,,,,,,,,21,M,20,59.803293648,,American English,VSH_Exp2,2015_Jun_18_1044,
Recordings/tapa.wav,no,t,p,a,yes,a,tapa,Training,alveolar,TrainingItems,1,64,164,49,,,,,,,,,,,21,M,20,59.803293648,,American English,VSH_Exp2,2015_Jun_18_1044,
Recordings/pupu.wav,no,p,p,u,yes,u,pupu,Training,bilabial,TrainingItems,1,65,165,26,,,,,,,,,,,21,M,20,59.803293648,,American English,VSH_Exp2,2015_Jun_18_1044,
Recordings/tutu.wav,no,t,t,u,yes,u,tutu,Training,alveolar,TrainingItems,1,66,166,67,,,,,,,,,,,21,M,20,59.803293648,,American English,VSH_Exp2,2015_Jun_18_1044,
Recordings/dadu.wav,yes,d,d,a,yes,u,dadu,Training,alveolar,TrainingItems,1,67,167,62,,,,,,,,,,,21,M,20,59.803293648,,American English,VSH_Exp2,2015_Jun_18_1044,
Recordings/pipa.wav,no,p,p,i,yes,a,pipa,Training,bilabial,TrainingItems,1,68,168,52,,,,,,,,,,,21,M,20,59.803293648,,American English,VSH_Exp2,2015_Jun_18_1044,
Recordings/vavu.wav,yes,v,v,a,no,u,vavu,Training,bilabial,TrainingItems,1,69,169,99,,,,,,,,,,,21,M,20,59.803293648,,American English,VSH_Exp2,2015_Jun_18_1044,
Recordings/buda.wav,yes,b,d,u,yes,a,buda,Training,bilabial,TrainingItems,1,70,170,9,,,,,,,,,,,21,M,20,59.803293648,,American English,VSH_Exp2,2015_Jun_18_1044,
Recordings/dubi.wav,yes,d,b,u,yes,i,dubi,Training,alveolar,TrainingItems,1,71,171,90,,,,,,,,,,,21,M,20,59.803293648,,American English,VSH_Exp2,2015_Jun_18_1044,
Recordings/vuza.wav,yes,v,z,u,no,a,vuza,Training,bilabial,TrainingItems,1,72,172,83,,,,,,,,,,,21,M,20,59.803293648,,American English,VSH_Exp2,2015_Jun_18_1044,
Recordings/tipi.wav,no,t,p,i,yes,i,tipi,Training,alveolar,TrainingItems,1,73,173,88,,,,,,,,,,,21,M,20,59.803293648,,American English,VSH_Exp2,2015_Jun_18_1044,
Recordings/pipi.wav,no,p,p,i,yes,i,pipi,Training,bilabial,TrainingItems,1,74,174,71,,,,,,,,,,,21,M,20,59.803293648,,American English,VSH_Exp2,2015_Jun_18_1044,
Recordings/badi.wav,yes,b,d,a,yes,i,badi,Training,bilabial,TrainingItems,1,75,175,54,,,,,,,,,,,21,M,20,59.803293648,,American English,VSH_Exp2,2015_Jun_18_1044,
Recordings/bibu.wav,yes,b,b,i,yes,u,bibu,Training,bilabial,TrainingItems,1,76,176,97,,,,,,,,,,,21,M,20,59.803293648,,American English,VSH_Exp2,2015_Jun_18_1044,
Recordings/zavi.wav,yes,z,v,a,no,i,zavi,Training,alveolar,TrainingItems,1,77,177,10,,,,,,,,,,,21,M,20,59.803293648,,American English,VSH_Exp2,2015_Jun_18_1044,
Recordings/duda.wav,yes,d,d,u,yes,a,duda,Training,alveolar,TrainingItems,1,78,178,75,,,,,,,,,,,21,M,20,59.803293648,,American English,VSH_Exp2,2015_Jun_18_1044,
Recordings/biba.wav,yes,b,b,i,yes,a,biba,Training,bilabial,TrainingItems,1,79,179,22,,,,,,,,,,,21,M,20,59.803293648,,American English,VSH_Exp2,2015_Jun_18_1044,
Recordings/viva.wav,yes,v,v,i,no,a,viva,Training,bilabial,TrainingItems,1,80,180,94,,,,,,,,,,,21,M,20,59.803293648,,American English,VSH_Exp2,2015_Jun_18_1044,
Recordings/viza.wav,yes,v,z,i,no,a,viza,Training,bilabial,TrainingItems,1,81,181,45,,,,,,,,,,,21,M,20,59.803293648,,American English,VSH_Exp2,2015_Jun_18_1044,
Recordings/fufa.wav,no,f,f,u,no,a,fufa,Training,bilabial,TrainingItems,1,82,182,78,,,,,,,,,,,21,M,20,59.803293648,,American English,VSH_Exp2,2015_Jun_18_1044,
Recordings/sisi.wav,no,s,s,i,no,i,sisi,Training,alveolar,TrainingItems,1,83,183,70,,,,,,,,,,,21,M,20,59.803293648,,American English,VSH_Exp2,2015_Jun_18_1044,
Recordings/papu.wav,no,p,p,a,yes,u,papu,Training,bilabial,TrainingItems,1,84,184,77,,,,,,,,,,,21,M,20,59.803293648,,American English,VSH_Exp2,2015_Jun_18_1044,
Recordings/zuva.wav,yes,z,v,u,no,a,zuva,Training,alveolar,TrainingItems,1,85,185,36,,,,,,,,,,,21,M,20,59.803293648,,American English,VSH_Exp2,2015_Jun_18_1044,
Recordings/dabi.wav,yes,d,b,a,yes,i,dabi,Training,alveolar,TrainingItems,1,86,186,7,,,,,,,,,,,21,M,20,59.803293648,,American English,VSH_Exp2,2015_Jun_18_1044,
Recordings/patu.wav,no,p,t,a,yes,u,patu,Training,bilabial,TrainingItems,1,87,187,69,,,,,,,,,,,21,M,20,59.803293648,,American English,VSH_Exp2,2015_Jun_18_1044,
Recordings/pati.wav,no,p,t,a,yes,i,pati,Training,bilabial,TrainingItems,1,88,188,4,,,,,,,,,,,21,M,20,59.803293648,,American English,VSH_Exp2,2015_Jun_18_1044,
Recordings/zava.wav,yes,z,v,a,no,a,zava,Training,alveolar,TrainingItems,1,89,189,86,,,,,,,,,,,21,M,20,59.803293648,,American English,VSH_Exp2,2015_Jun_18_1044,
Recordings/tuti.wav,no,t,t,u,yes,i,tuti,Training,alveolar,TrainingItems,1,90,190,19,,,,,,,,,,,21,M,20,59.803293648,,American English,VSH_Exp2,2015_Jun_18_1044,
Recordings/bubu.wav,yes,b,b,u,yes,u,bubu,Training,bilabial,TrainingItems,1,91,191,2,,,,,,,,,,,21,M,20,59.803293648,,American English,VSH_Exp2,2015_Jun_18_1044,
Recordings/fafi.wav,no,f,f,a,no,i,fafi,Training,bilabial,TrainingItems,1,92,192,56,,,,,,,,,,,21,M,20,59.803293648,,American English,VSH_Exp2,2015_Jun_18_1044,
Recordings/zaza.wav,yes,z,z,a,no,a,zaza,Training,alveolar,TrainingItems,1,93,193,87,,,,,,,,,,,21,M,20,59.803293648,,American English,VSH_Exp2,2015_Jun_18_1044,
Recordings/susa.wav,no,s,s,u,no,a,susa,Training,alveolar,TrainingItems,1,94,194,65,,,,,,,,,,,21,M,20,59.803293648,,American English,VSH_Exp2,2015_Jun_18_1044,
Recordings/vizu.wav,yes,v,z,i,no,u,vizu,Training,bilabial,TrainingItems,1,95,195,92,,,,,,,,,,,21,M,20,59.803293648,,American English,VSH_Exp2,2015_Jun_18_1044,
Recordings/dudi.wav,yes,d,d,u,yes,i,dudi,Training,alveolar,TrainingItems,1,96,196,23,,,,,,,,,,,21,M,20,59.803293648,,American English,VSH_Exp2,2015_Jun_18_1044,
Recordings/papi.wav,no,p,p,a,yes,i,papi,Training,bilabial,TrainingItems,1,97,197,5,,,,,,,,,,,21,M,20,59.803293648,,American English,VSH_Exp2,2015_Jun_18_1044,
Recordings/vazu.wav,yes,v,z,a,no,u,vazu,Training,bilabial,TrainingItems,1,98,198,1,,,,,,,,,,,21,M,20,59.803293648,,American English,VSH_Exp2,2015_Jun_18_1044,
Recordings/budu.wav,yes,b,d,u,yes,u,budu,Training,bilabial,TrainingItems,1,99,199,59,,,,,,,,,,,21,M,20,59.803293648,,American English,VSH_Exp2,2015_Jun_18_1044,
,,,,,,,,,,,,,,,,,,,,,space,12.2207279205,,,21,M,20,59.803293648,,American English,VSH_Exp2,2015_Jun_18_1044,
Recordings/safi.wav,no,s,f,a,no,i,safi,Test,alveolar,NewTestStimuli,,,,,0,0,0,15,,,,,Yes,3.295,21,M,20,59.803293648,,American English,VSH_Exp2,2015_Jun_18_1044,
Recordings/vufa.wav,yes,v,f,u,no,a,vufa,Controls,bilabial,StopControls,,,,,0,1,1,27,,,,,Yes,2.226,21,M,20,59.803293648,,American English,VSH_Exp2,2015_Jun_18_1044,
Recordings/puva.wav,no,p,v,u,yes,a,puva,Controls,bilabial,NoPatternControls,,,,,0,2,2,59,,,,,No,2.209,21,M,20,59.803293648,,American English,VSH_Exp2,2015_Jun_18_1044,
Recordings/zuda.wav,yes,z,d,u,no,a,zuda,Controls,alveolar,VoicingControls,,,,,0,3,3,45,,,,,No,5.034,21,M,20,59.803293648,,American English,VSH_Exp2,2015_Jun_18_1044,
Recordings/zaba.wav,yes,z,b,a,no,a,zaba,Controls,alveolar,VoicingControls,,,,,0,4,4,46,,,,,Yes,2.861,21,M,20,59.803293648,,American English,VSH_Exp2,2015_Jun_18_1044,
Recordings/zuza.wav,yes,z,z,u,no,a,zuza,Test,alveolar,OldTestStimuli,,,,,0,5,5,4,,,,,Yes,1.173,21,M,20,59.803293648,,American English,VSH_Exp2,2015_Jun_18_1044,
Recordings/daba.wav,yes,d,b,a,yes,a,daba,Test,alveolar,OldTestStimuli,,,,,0,6,6,7,,,,,Yes,1.54,21,M,20,59.803293648,,American English,VSH_Exp2,2015_Jun_18_1044,
Recordings/vuba.wav,yes,v,b,u,no,a,vuba,Controls,bilabial,VoicingControls,,,,,0,7,7,39,,,,,Yes,5.586,21,M,20,59.803293648,,American English,VSH_Exp2,2015_Jun_18_1044,
Recordings/sisa.wav,no,s,s,i,no,a,sisa,Test,alveolar,OldTestStimuli,,,,,0,8,8,1,,,,,No,4.165,21,M,20,59.803293648,,American English,VSH_Exp2,2015_Jun_18_1044,
Recordings/siti.wav,no,s,t,i,no,i,siti,Controls,alveolar,VoicingControls,,,,,0,9,9,44,,,,,Yes,2.544,21,M,20,59.803293648,,American English,VSH_Exp2,2015_Jun_18_1044,
Recordings/vivu.wav,yes,v,v,i,no,u,vivu,Test,bilabial,OldTestStimuli,,,,,0,10,10,2,,,,,Yes,1.022,21,M,20,59.803293648,,American English,VSH_Exp2,2015_Jun_18_1044,
Recordings/bidi.wav,yes,b,d,i,yes,i,bidi,Test,bilabial,OldTestStimuli,,,,,0,11,11,5,,,,,Yes,1.457,21,M,20,59.803293648,,American English,VSH_Exp2,2015_Jun_18_1044,
Recordings/pida.wav,no,p,d,i,yes,a,pida,Controls,bilabial,StopControls,,,,,0,12,12,28,,,,,No,1.49,21,M,20,59.803293648,,American English,VSH_Exp2,2015_Jun_18_1044,
Recordings/fisu.wav,no,f,s,i,no,u,fisu,Test,bilabial,NewTestStimuli,,,,,0,13,13,14,,,,,No,1.541,21,M,20,59.803293648,,American English,VSH_Exp2,2015_Jun_18_1044,
Recordings/fusa.wav,no,f,s,u,no,a,fusa,Test,bilabial,NewTestStimuli,,,,,0,14,14,16,,,,,Yes,1.557,21,M,20,59.803293648,,American English,VSH_Exp2,2015_Jun_18_1044,
Recordings/sifa.wav,no,s,f,i,no,a,sifa,Test,alveolar,NewTestStimuli,,,,,0,15,15,17,,,,,Yes,1.958,21,M,20,59.803293648,,American English,VSH_Exp2,2015_Jun_18_1044,
Recordings/bibu.wav,yes,b,b,i,yes,u,bibu,Test,bilabial,OldTestStimuli,,,,,0,16,16,9,,,,,Yes,2.577,21,M,20,59.803293648,,American English,VSH_Exp2,2015_Jun_18_1044,
Recordings/safu.wav,no,s,f,a,no,u,safu,Test,alveolar,NewTestStimuli,,,,,0,17,17,13,,,,,Yes,3.948,21,M,20,59.803293648,,American English,VSH_Exp2,2015_Jun_18_1044,
Recordings/pifa.wav,no,p,f,i,yes,a,pifa,Controls,bilabial,VoicingControls,,,,,0,18,18,41,,,,,No,2.577,21,M,20,59.803293648,,American English,VSH_Exp2,2015_Jun_18_1044,
Recordings/zafa.wav,yes,z,f,a,no,a,zafa,Controls,alveolar,StopControls,,,,,0,19,19,34,,,,,Yes,3.329,21,M,20,59.803293648,,American English,VSH_Exp2,2015_Jun_18_1044,
Recordings/viza.wav,yes,v,z,i,no,a,viza,Test,bilabial,OldTestStimuli,,,,,0,20,20,11,,,,,Yes,1.373,21,M,20,59.803293648,,American English,VSH_Exp2,2015_Jun_18_1044,
Recordings/tazi.wav,no,t,z,a,yes,i,tazi,Controls,alveolar,NoPatternControls,,,,,0,21,21,49,,,,,No,1.975,21,M,20,59.803293648,,American English,VSH_Exp2,2015_Jun_18_1044,
Recordings/fisi.wav,no,f,s,i,no,i,fisi,Test,bilabial,NewTestStimuli,,,,,0,22,22,12,,,,,Yes,1.423,21,M,20,59.803293648,,American English,VSH_Exp2,2015_Jun_18_1044,
Recordings/siza.wav,no,s,z,i,no,a,siza,Controls,alveolar,StopControls,,,,,0,23,23,32,,,,,No,1.891,21,M,20,59.803293648,,American English,VSH_Exp2,2015_Jun_18_1044,
Recordings/sufi.wav,no,s,f,u,no,i,sufi,Test,alveolar,NewTestStimuli,,,,,0,24,24,21,,,,,Yes,2.443,21,M,20,59.803293648,,American English,VSH_Exp2,2015_Jun_18_1044,
Recordings/fifu.wav,no,f,f,i,no,u,fifu,Test,bilabial,OldTestStimuli,,,,,0,25,25,8,,,,,Yes,1.006,21,M,20,59.803293648,,American English,VSH_Exp2,2015_Jun_18_1044,
Recordings/tibi.wav,no,t,b,i,yes,i,tibi,Controls,alveolar,StopControls,,,,,0,26,26,25,,,,,No,3.129,21,M,20,59.803293648,,American English,VSH_Exp2,2015_Jun_18_1044,
Recordings/pisa.wav,no,p,s,i,yes,a,pisa,Controls,bilabial,VoicingControls,,,,,0,27,27,40,,,,,No,3.513,21,M,20,59.803293648,,American English,VSH_Exp2,2015_Jun_18_1044,
Recordings/sifi.wav,no,s,f,i,no,i,sifi,Test,alveolar,NewTestStimuli,,,,,0,28,28,19,,,,,Yes,3.246,21,M,20,59.803293648,,American English,VSH_Exp2,2015_Jun_18_1044,
Recordings/papu.wav,no,p,p,a,yes,u,papu,Test,bilabial,OldTestStimuli,,,,,0,29,29,3,,,,,Yes,0.955,21,M,20,59.803293648,,American English,VSH_Exp2,2015_Jun_18_1044,
Recordings/suda.wav,no,s,d,u,no,a,suda,Controls,alveolar,NoPatternControls,,,,,0,30,30,56,,,,,Yes,3.513,21,M,20,59.803293648,,American English,VSH_Exp2,2015_Jun_18_1044,
Recordings/dipu.wav,yes,d,p,i,yes,u,dipu,Controls,alveolar,StopControls,,,,,0,31,31,26,,,,,Yes,3.011,21,M,20,59.803293648,,American English,VSH_Exp2,2015_Jun_18_1044,
Recordings/dasi.wav,yes,d,s,a,yes,i,dasi,Controls,alveolar,NoPatternControls,,,,,0,32,32,54,,,,,No,2.543,21,M,20,59.803293648,,American English,VSH_Exp2,2015_Jun_18_1044,
Recordings/vuti.wav,yes,v,t,u,no,i,vuti,Controls,bilabial,NoPatternControls,,,,,0,33,33,51,,,,,No,1.825,21,M,20,59.803293648,,American English,VSH_Exp2,2015_Jun_18_1044,
Recordings/sifu.wav,no,s,f,i,no,u,sifu,Test,alveolar,NewTestStimuli,,,,,0,34,34,18,,,,,No,7.642,21,M,20,59.803293648,,American English,VSH_Exp2,2015_Jun_18_1044,
Recordings/fusu.wav,no,f,s,u,no,u,fusu,Test,bilabial,NewTestStimuli,,,,,0,35,35,22,,,,,No,1.44,21,M,20,59.803293648,,American English,VSH_Exp2,2015_Jun_18_1044,
Recordings/piba.wav,no,p,b,i,yes,a,piba,Controls,bilabial,StopControls,,,,,0,36,36,29,,,,,No,1.323,21,M,20,59.803293648,,American English,VSH_Exp2,2015_Jun_18_1044,
Recordings/bipu.wav,yes,b,p,i,yes,u,bipu,Controls,bilabial,StopControls,,,,,0,37,37,24,,,,,No,1.758,21,M,20,59.803293648,,American English,VSH_Exp2,2015_Jun_18_1044,
Recordings/zivu.wav,yes,z,v,i,no,u,zivu,Test,alveolar,OldTestStimuli,,,,,0,38,38,10,,,,,Yes,2.443,21,M,20,59.803293648,,American English,VSH_Exp2,2015_Jun_18_1044,
Recordings/dutu.wav,yes,d,t,u,yes,u,dutu,Controls,alveolar,StopControls,,,,,0,39,39,30,,,,,Yes,1.658,21,M,20,59.803293648,,American English,VSH_Exp2,2015_Jun_18_1044,
Recordings/pabi.wav,no,p,b,a,yes,i,pabi,Controls,bilabial,StopControls,,,,,0,40,40,35,,,,,Yes,9.18,21,M,20,59.803293648,,American English,VSH_Exp2,2015_Jun_18_1044,
Recordings/dupi.wav,yes,d,p,u,yes,i,dupi,Controls,alveolar,StopControls,,,,,0,41,41,31,,,,,Yes,2.075,21,M,20,59.803293648,,American English,VSH_Exp2,2015_Jun_18_1044,
Recordings/bifi.wav,yes,b,f,i,yes,i,bifi,Controls,bilabial,NoPatternControls,,,,,0,42,42,48,,,,,No,2.142,21,M,20,59.803293648,,American English,VSH_Exp2,2015_Jun_18_1044,
Recordings/duvi.wav,yes,d,v,u,yes,i,duvi,Controls,alveolar,VoicingControls,,,,,0,43,43,43,,,,,No,4.566,21,M,20,59.803293648,,American English,VSH_Exp2,2015_Jun_18_1044,
Recordings/dudu.wav,yes,d,d,u,yes,u,dudu,Test,alveolar,OldTestStimuli,,,,,0,44,44,6,,,,,Yes,1.156,21,M,20,59.803293648,,American English,VSH_Exp2,2015_Jun_18_1044,
Recordings/dadi.wav,yes,d,d,a,yes,i,dadi,Test,alveolar,OldTestStimuli,,,,,0,45,45,0,,,,,Yes,1.022,21,M,20,59.803293648,,American English,VSH_Exp2,2015_Jun_18_1044,
Recordings/zatu.wav,yes,z,t,a,no,u,zatu,Controls,alveolar,NoPatternControls,,,,,0,46,46,57,,,,,Yes,2.945,21,M,20,59.803293648,,American English,VSH_Exp2,2015_Jun_18_1044,
Recordings/bivu.wav,yes,b,v,i,yes,u,bivu,Controls,bilabial,VoicingControls,,,,,0,47,47,36,,,,,Yes,1.356,21,M,20,59.803293648,,American English,VSH_Exp2,2015_Jun_18_1044,
Recordings/pazu.wav,no,p,z,a,yes,u,pazu,Controls,bilabial,NoPatternControls,,,,,0,48,48,52,,,,,No,2.259,21,M,20,59.803293648,,American English,VSH_Exp2,2015_Jun_18_1044,
Recordings/puzu.wav,no,p,z,u,yes,u,puzu,Controls,bilabial,NoPatternControls,,,,,0,49,49,53,,,,,Yes,1.724,21,M,20,59.803293648,,American English,VSH_Exp2,2015_Jun_18_1044,
Recordings/difu.wav,yes,d,f,i,yes,u,difu,Controls,alveolar,NoPatternControls,,,,,0,50,50,50,,,,,Yes,1.273,21,M,20,59.803293648,,American English,VSH_Exp2,2015_Jun_18_1044,
Recordings/divu.wav,yes,d,v,i,yes,u,divu,Controls,alveolar,VoicingControls,,,,,0,51,51,38,,,,,Yes,1.373,21,M,20,59.803293648,,American English,VSH_Exp2,2015_Jun_18_1044,
Recordings/fasa.wav,no,f,s,a,no,a,fasa,Test,bilabial,NewTestStimuli,,,,,0,52,52,23,,,,,No,2.192,21,M,20,59.803293648,,American English,VSH_Exp2,2015_Jun_18_1044,
Recordings/pafu.wav,no,p,f,a,yes,u,pafu,Controls,bilabial,VoicingControls,,,,,0,53,53,47,,,,,Yes,5.068,21,M,20,59.803293648,,American English,VSH_Exp2,2015_Jun_18_1044,
Recordings/tafu.wav,no,t,f,a,yes,u,tafu,Controls,alveolar,VoicingControls,,,,,0,54,54,37,,,,,Yes,1.189,21,M,20,59.803293648,,American English,VSH_Exp2,2015_Jun_18_1044,
Recordings/zusa.wav,yes,z,s,u,no,a,zusa,Controls,alveolar,StopControls,,,,,0,55,55,33,,,,,Yes,2.727,21,M,20,59.803293648,,American English,VSH_Exp2,2015_Jun_18_1044,
Recordings/fusi.wav,no,f,s,u,no,i,fusi,Test,bilabial,NewTestStimuli,,,,,0,56,56,20,,,,,Yes,1.056,21,M,20,59.803293648,,American English,VSH_Exp2,2015_Jun_18_1044,
Recordings/zupi.wav,yes,z,p,u,no,i,zupi,Controls,alveolar,NoPatternControls,,,,,0,57,57,58,,,,,No,1.507,21,M,20,59.803293648,,American English,VSH_Exp2,2015_Jun_18_1044,
Recordings/duzu.wav,yes,d,z,u,yes,u,duzu,Controls,alveolar,VoicingControls,,,,,0,58,58,42,,,,,No,8.662,21,M,20,59.803293648,,American English,VSH_Exp2,2015_Jun_18_1044,
Recordings/dafi.wav,yes,d,f,a,yes,i,dafi,Controls,alveolar,NoPatternControls,,,,,0,59,59,55,,,,,Yes,2.059,21,M,20,59.803293648,,American English,VSH_Exp2,2015_Jun_18_1044,
