SOUND,VOICING,SEGMENT,SEGMENT3,SEGMENT2,STOP,SEGMENT4,STIMULUS,GENERAL_TYPE,PLACE,TYPE,trials.thisRepN,trials.thisTrialN,trials.thisN,trials.thisIndex,trials_2.thisRepN,trials_2.thisTrialN,trials_2.thisN,trials_2.thisIndex,SpaceBar.keys,SpaceBar.rt,key_resp_2.keys,key_resp_2.rt,rating.response,rating.rt,participant,Gender,Age,frameRate,OtherLanguages,NativeLanguage,expName,date,
,,,,,,,,,,,,,,,,,,,space,18.2216300964,,,,,26,F,26,59.873723279,chinese,American English,VSH_Exp2,2015_Sep_28_1519,
Recordings/daba.wav,yes,d,b,a,yes,a,daba,Training,alveolar,TrainingItems,0,0,0,15,,,,,,,,,,,26,F,26,59.873723279,chinese,American English,VSH_Exp2,2015_Sep_28_1519,
Recordings/bibu.wav,yes,b,b,i,yes,u,bibu,Training,bilabial,TrainingItems,0,1,1,28,,,,,,,,,,,26,F,26,59.873723279,chinese,American English,VSH_Exp2,2015_Sep_28_1519,
Recordings/buba.wav,yes,b,b,u,yes,a,buba,Training,bilabial,TrainingItems,0,2,2,16,,,,,,,,,,,26,F,26,59.873723279,chinese,American English,VSH_Exp2,2015_Sep_28_1519,
Recordings/dibi.wav,yes,d,b,i,yes,i,dibi,Training,alveolar,TrainingItems,0,3,3,25,,,,,,,,,,,26,F,26,59.873723279,chinese,American English,VSH_Exp2,2015_Sep_28_1519,
Recordings/viva.wav,yes,v,v,i,no,a,viva,Training,bilabial,TrainingItems,0,4,4,22,,,,,,,,,,,26,F,26,59.873723279,chinese,American English,VSH_Exp2,2015_Sep_28_1519,
Recordings/tatu.wav,no,t,t,a,yes,u,tatu,Training,alveolar,TrainingItems,0,5,5,24,,,,,,,,,,,26,F,26,59.873723279,chinese,American English,VSH_Exp2,2015_Sep_28_1519,
Recordings/pupi.wav,no,p,p,u,yes,i,pupi,Training,bilabial,TrainingItems,0,6,6,81,,,,,,,,,,,26,F,26,59.873723279,chinese,American English,VSH_Exp2,2015_Sep_28_1519,
Recordings/tupu.wav,no,t,p,u,yes,u,tupu,Training,alveolar,TrainingItems,0,7,7,23,,,,,,,,,,,26,F,26,59.873723279,chinese,American English,VSH_Exp2,2015_Sep_28_1519,
Recordings/didi.wav,yes,d,d,i,yes,i,didi,Training,alveolar,TrainingItems,0,8,8,31,,,,,,,,,,,26,F,26,59.873723279,chinese,American English,VSH_Exp2,2015_Sep_28_1519,
Recordings/zuza.wav,yes,z,z,u,no,a,zuza,Training,alveolar,TrainingItems,0,9,9,49,,,,,,,,,,,26,F,26,59.873723279,chinese,American English,VSH_Exp2,2015_Sep_28_1519,
Recordings/dibu.wav,yes,d,b,i,yes,u,dibu,Training,alveolar,TrainingItems,0,10,10,78,,,,,,,,,,,26,F,26,59.873723279,chinese,American English,VSH_Exp2,2015_Sep_28_1519,
Recordings/vivu.wav,yes,v,v,i,no,u,vivu,Training,bilabial,TrainingItems,0,11,11,61,,,,,,,,,,,26,F,26,59.873723279,chinese,American English,VSH_Exp2,2015_Sep_28_1519,
Recordings/fufa.wav,no,f,f,u,no,a,fufa,Training,bilabial,TrainingItems,0,12,12,66,,,,,,,,,,,26,F,26,59.873723279,chinese,American English,VSH_Exp2,2015_Sep_28_1519,
Recordings/bubi.wav,yes,b,b,u,yes,i,bubi,Training,bilabial,TrainingItems,0,13,13,3,,,,,,,,,,,26,F,26,59.873723279,chinese,American English,VSH_Exp2,2015_Sep_28_1519,
Recordings/vazu.wav,yes,v,z,a,no,u,vazu,Training,bilabial,TrainingItems,0,14,14,38,,,,,,,,,,,26,F,26,59.873723279,chinese,American English,VSH_Exp2,2015_Sep_28_1519,
Recordings/dubu.wav,yes,d,b,u,yes,u,dubu,Training,alveolar,TrainingItems,0,15,15,86,,,,,,,,,,,26,F,26,59.873723279,chinese,American English,VSH_Exp2,2015_Sep_28_1519,
Recordings/pita.wav,no,p,t,i,yes,a,pita,Training,bilabial,TrainingItems,0,16,16,8,,,,,,,,,,,26,F,26,59.873723279,chinese,American English,VSH_Exp2,2015_Sep_28_1519,
Recordings/pata.wav,no,p,t,a,yes,a,pata,Training,bilabial,TrainingItems,0,17,17,12,,,,,,,,,,,26,F,26,59.873723279,chinese,American English,VSH_Exp2,2015_Sep_28_1519,
Recordings/zuzi.wav,yes,z,z,u,no,i,zuzi,Training,alveolar,TrainingItems,0,18,18,37,,,,,,,,,,,26,F,26,59.873723279,chinese,American English,VSH_Exp2,2015_Sep_28_1519,
Recordings/tapu.wav,no,t,p,a,yes,u,tapu,Training,alveolar,TrainingItems,0,19,19,43,,,,,,,,,,,26,F,26,59.873723279,chinese,American English,VSH_Exp2,2015_Sep_28_1519,
Recordings/vaza.wav,yes,v,z,a,no,a,vaza,Training,bilabial,TrainingItems,0,20,20,98,,,,,,,,,,,26,F,26,59.873723279,chinese,American English,VSH_Exp2,2015_Sep_28_1519,
Recordings/budi.wav,yes,b,d,u,yes,i,budi,Training,bilabial,TrainingItems,0,21,21,75,,,,,,,,,,,26,F,26,59.873723279,chinese,American English,VSH_Exp2,2015_Sep_28_1519,
Recordings/sisi.wav,no,s,s,i,no,i,sisi,Training,alveolar,TrainingItems,0,22,22,97,,,,,,,,,,,26,F,26,59.873723279,chinese,American English,VSH_Exp2,2015_Sep_28_1519,
Recordings/zizu.wav,yes,z,z,i,no,u,zizu,Training,alveolar,TrainingItems,0,23,23,29,,,,,,,,,,,26,F,26,59.873723279,chinese,American English,VSH_Exp2,2015_Sep_28_1519,
Recordings/putu.wav,no,p,t,u,yes,u,putu,Training,bilabial,TrainingItems,0,24,24,94,,,,,,,,,,,26,F,26,59.873723279,chinese,American English,VSH_Exp2,2015_Sep_28_1519,
Recordings/bibi.wav,yes,b,b,i,yes,i,bibi,Training,bilabial,TrainingItems,0,25,25,57,,,,,,,,,,,26,F,26,59.873723279,chinese,American English,VSH_Exp2,2015_Sep_28_1519,
Recordings/tutu.wav,no,t,t,u,yes,u,tutu,Training,alveolar,TrainingItems,0,26,26,65,,,,,,,,,,,26,F,26,59.873723279,chinese,American English,VSH_Exp2,2015_Sep_28_1519,
Recordings/zazu.wav,yes,z,z,a,no,u,zazu,Training,alveolar,TrainingItems,0,27,27,26,,,,,,,,,,,26,F,26,59.873723279,chinese,American English,VSH_Exp2,2015_Sep_28_1519,
Recordings/fufu.wav,no,f,f,u,no,u,fufu,Training,bilabial,TrainingItems,0,28,28,35,,,,,,,,,,,26,F,26,59.873723279,chinese,American English,VSH_Exp2,2015_Sep_28_1519,
Recordings/tipi.wav,no,t,p,i,yes,i,tipi,Training,alveolar,TrainingItems,0,29,29,2,,,,,,,,,,,26,F,26,59.873723279,chinese,American English,VSH_Exp2,2015_Sep_28_1519,
Recordings/dabi.wav,yes,d,b,a,yes,i,dabi,Training,alveolar,TrainingItems,0,30,30,0,,,,,,,,,,,26,F,26,59.873723279,chinese,American English,VSH_Exp2,2015_Sep_28_1519,
Recordings/zava.wav,yes,z,v,a,no,a,zava,Training,alveolar,TrainingItems,0,31,31,41,,,,,,,,,,,26,F,26,59.873723279,chinese,American English,VSH_Exp2,2015_Sep_28_1519,
Recordings/sisa.wav,no,s,s,i,no,a,sisa,Training,alveolar,TrainingItems,0,32,32,55,,,,,,,,,,,26,F,26,59.873723279,chinese,American English,VSH_Exp2,2015_Sep_28_1519,
Recordings/zuzu.wav,yes,z,z,u,no,u,zuzu,Training,alveolar,TrainingItems,0,33,33,27,,,,,,,,,,,26,F,26,59.873723279,chinese,American English,VSH_Exp2,2015_Sep_28_1519,
Recordings/dudi.wav,yes,d,d,u,yes,i,dudi,Training,alveolar,TrainingItems,0,34,34,50,,,,,,,,,,,26,F,26,59.873723279,chinese,American English,VSH_Exp2,2015_Sep_28_1519,
Recordings/zizi.wav,yes,z,z,i,no,i,zizi,Training,alveolar,TrainingItems,0,35,35,80,,,,,,,,,,,26,F,26,59.873723279,chinese,American English,VSH_Exp2,2015_Sep_28_1519,
Recordings/zivu.wav,yes,z,v,i,no,u,zivu,Training,alveolar,TrainingItems,0,36,36,93,,,,,,,,,,,26,F,26,59.873723279,chinese,American English,VSH_Exp2,2015_Sep_28_1519,
Recordings/vuza.wav,yes,v,z,u,no,a,vuza,Training,bilabial,TrainingItems,0,37,37,90,,,,,,,,,,,26,F,26,59.873723279,chinese,American English,VSH_Exp2,2015_Sep_28_1519,
Recordings/bida.wav,yes,b,d,i,yes,a,bida,Training,bilabial,TrainingItems,0,38,38,47,,,,,,,,,,,26,F,26,59.873723279,chinese,American English,VSH_Exp2,2015_Sep_28_1519,
Recordings/fufi.wav,no,f,f,u,no,i,fufi,Training,bilabial,TrainingItems,0,39,39,44,,,,,,,,,,,26,F,26,59.873723279,chinese,American English,VSH_Exp2,2015_Sep_28_1519,
Recordings/titi.wav,no,t,t,i,yes,i,titi,Training,alveolar,TrainingItems,0,40,40,89,,,,,,,,,,,26,F,26,59.873723279,chinese,American English,VSH_Exp2,2015_Sep_28_1519,
Recordings/viza.wav,yes,v,z,i,no,a,viza,Training,bilabial,TrainingItems,0,41,41,60,,,,,,,,,,,26,F,26,59.873723279,chinese,American English,VSH_Exp2,2015_Sep_28_1519,
Recordings/duda.wav,yes,d,d,u,yes,a,duda,Training,alveolar,TrainingItems,0,42,42,62,,,,,,,,,,,26,F,26,59.873723279,chinese,American English,VSH_Exp2,2015_Sep_28_1519,
Recordings/fafa.wav,no,f,f,a,no,a,fafa,Training,bilabial,TrainingItems,0,43,43,92,,,,,,,,,,,26,F,26,59.873723279,chinese,American English,VSH_Exp2,2015_Sep_28_1519,
Recordings/duba.wav,yes,d,b,u,yes,a,duba,Training,alveolar,TrainingItems,0,44,44,30,,,,,,,,,,,26,F,26,59.873723279,chinese,American English,VSH_Exp2,2015_Sep_28_1519,
Recordings/fifi.wav,no,f,f,i,no,i,fifi,Training,bilabial,TrainingItems,0,45,45,79,,,,,,,,,,,26,F,26,59.873723279,chinese,American English,VSH_Exp2,2015_Sep_28_1519,
Recordings/badu.wav,yes,b,d,a,yes,u,badu,Training,bilabial,TrainingItems,0,46,46,7,,,,,,,,,,,26,F,26,59.873723279,chinese,American English,VSH_Exp2,2015_Sep_28_1519,
Recordings/zuvi.wav,yes,z,v,u,no,i,zuvi,Training,alveolar,TrainingItems,0,47,47,67,,,,,,,,,,,26,F,26,59.873723279,chinese,American English,VSH_Exp2,2015_Sep_28_1519,
Recordings/budu.wav,yes,b,d,u,yes,u,budu,Training,bilabial,TrainingItems,0,48,48,40,,,,,,,,,,,26,F,26,59.873723279,chinese,American English,VSH_Exp2,2015_Sep_28_1519,
Recordings/bada.wav,yes,b,d,a,yes,a,bada,Training,bilabial,TrainingItems,0,49,49,11,,,,,,,,,,,26,F,26,59.873723279,chinese,American English,VSH_Exp2,2015_Sep_28_1519,
Recordings/vuzu.wav,yes,v,z,u,no,u,vuzu,Training,bilabial,TrainingItems,0,50,50,71,,,,,,,,,,,26,F,26,59.873723279,chinese,American English,VSH_Exp2,2015_Sep_28_1519,
Recordings/papi.wav,no,p,p,a,yes,i,papi,Training,bilabial,TrainingItems,0,51,51,69,,,,,,,,,,,26,F,26,59.873723279,chinese,American English,VSH_Exp2,2015_Sep_28_1519,
Recordings/zaza.wav,yes,z,z,a,no,a,zaza,Training,alveolar,TrainingItems,0,52,52,83,,,,,,,,,,,26,F,26,59.873723279,chinese,American English,VSH_Exp2,2015_Sep_28_1519,
Recordings/fafu.wav,no,f,f,a,no,u,fafu,Training,bilabial,TrainingItems,0,53,53,19,,,,,,,,,,,26,F,26,59.873723279,chinese,American English,VSH_Exp2,2015_Sep_28_1519,
Recordings/babi.wav,yes,b,b,a,yes,i,babi,Training,bilabial,TrainingItems,0,54,54,13,,,,,,,,,,,26,F,26,59.873723279,chinese,American English,VSH_Exp2,2015_Sep_28_1519,
Recordings/badi.wav,yes,b,d,a,yes,i,badi,Training,bilabial,TrainingItems,0,55,55,34,,,,,,,,,,,26,F,26,59.873723279,chinese,American English,VSH_Exp2,2015_Sep_28_1519,
Recordings/vavi.wav,yes,v,v,a,no,i,vavi,Training,bilabial,TrainingItems,0,56,56,96,,,,,,,,,,,26,F,26,59.873723279,chinese,American English,VSH_Exp2,2015_Sep_28_1519,
Recordings/tipa.wav,no,t,p,i,yes,a,tipa,Training,alveolar,TrainingItems,0,57,57,52,,,,,,,,,,,26,F,26,59.873723279,chinese,American English,VSH_Exp2,2015_Sep_28_1519,
Recordings/bidu.wav,yes,b,d,i,yes,u,bidu,Training,bilabial,TrainingItems,0,58,58,14,,,,,,,,,,,26,F,26,59.873723279,chinese,American English,VSH_Exp2,2015_Sep_28_1519,
Recordings/dudu.wav,yes,d,d,u,yes,u,dudu,Training,alveolar,TrainingItems,0,59,59,82,,,,,,,,,,,26,F,26,59.873723279,chinese,American English,VSH_Exp2,2015_Sep_28_1519,
Recordings/tuti.wav,no,t,t,u,yes,i,tuti,Training,alveolar,TrainingItems,0,60,60,33,,,,,,,,,,,26,F,26,59.873723279,chinese,American English,VSH_Exp2,2015_Sep_28_1519,
Recordings/puti.wav,no,p,t,u,yes,i,puti,Training,bilabial,TrainingItems,0,61,61,32,,,,,,,,,,,26,F,26,59.873723279,chinese,American English,VSH_Exp2,2015_Sep_28_1519,
Recordings/sasu.wav,no,s,s,a,no,u,sasu,Training,alveolar,TrainingItems,0,62,62,58,,,,,,,,,,,26,F,26,59.873723279,chinese,American English,VSH_Exp2,2015_Sep_28_1519,
Recordings/fifu.wav,no,f,f,i,no,u,fifu,Training,bilabial,TrainingItems,0,63,63,4,,,,,,,,,,,26,F,26,59.873723279,chinese,American English,VSH_Exp2,2015_Sep_28_1519,
Recordings/bubu.wav,yes,b,b,u,yes,u,bubu,Training,bilabial,TrainingItems,0,64,64,68,,,,,,,,,,,26,F,26,59.873723279,chinese,American English,VSH_Exp2,2015_Sep_28_1519,
Recordings/zuva.wav,yes,z,v,u,no,a,zuva,Training,alveolar,TrainingItems,0,65,65,9,,,,,,,,,,,26,F,26,59.873723279,chinese,American English,VSH_Exp2,2015_Sep_28_1519,
Recordings/zavu.wav,yes,z,v,a,no,u,zavu,Training,alveolar,TrainingItems,0,66,66,36,,,,,,,,,,,26,F,26,59.873723279,chinese,American English,VSH_Exp2,2015_Sep_28_1519,
Recordings/tapi.wav,no,t,p,a,yes,i,tapi,Training,alveolar,TrainingItems,0,67,67,56,,,,,,,,,,,26,F,26,59.873723279,chinese,American English,VSH_Exp2,2015_Sep_28_1519,
Recordings/vavu.wav,yes,v,v,a,no,u,vavu,Training,bilabial,TrainingItems,0,68,68,10,,,,,,,,,,,26,F,26,59.873723279,chinese,American English,VSH_Exp2,2015_Sep_28_1519,
Recordings/fifa.wav,no,f,f,i,no,a,fifa,Training,bilabial,TrainingItems,0,69,69,95,,,,,,,,,,,26,F,26,59.873723279,chinese,American English,VSH_Exp2,2015_Sep_28_1519,
Recordings/babu.wav,yes,b,b,a,yes,u,babu,Training,bilabial,TrainingItems,0,70,70,42,,,,,,,,,,,26,F,26,59.873723279,chinese,American English,VSH_Exp2,2015_Sep_28_1519,
Recordings/zazi.wav,yes,z,z,a,no,i,zazi,Training,alveolar,TrainingItems,0,71,71,64,,,,,,,,,,,26,F,26,59.873723279,chinese,American English,VSH_Exp2,2015_Sep_28_1519,
Recordings/titu.wav,no,t,t,i,yes,u,titu,Training,alveolar,TrainingItems,0,72,72,87,,,,,,,,,,,26,F,26,59.873723279,chinese,American English,VSH_Exp2,2015_Sep_28_1519,
Recordings/dadu.wav,yes,d,d,a,yes,u,dadu,Training,alveolar,TrainingItems,0,73,73,5,,,,,,,,,,,26,F,26,59.873723279,chinese,American English,VSH_Exp2,2015_Sep_28_1519,
Recordings/pipu.wav,no,p,p,i,yes,u,pipu,Training,bilabial,TrainingItems,0,74,74,84,,,,,,,,,,,26,F,26,59.873723279,chinese,American English,VSH_Exp2,2015_Sep_28_1519,
Recordings/pati.wav,no,p,t,a,yes,i,pati,Training,bilabial,TrainingItems,0,75,75,18,,,,,,,,,,,26,F,26,59.873723279,chinese,American English,VSH_Exp2,2015_Sep_28_1519,
Recordings/biba.wav,yes,b,b,i,yes,a,biba,Training,bilabial,TrainingItems,0,76,76,20,,,,,,,,,,,26,F,26,59.873723279,chinese,American English,VSH_Exp2,2015_Sep_28_1519,
Recordings/tita.wav,no,t,t,i,yes,a,tita,Training,alveolar,TrainingItems,0,77,77,45,,,,,,,,,,,26,F,26,59.873723279,chinese,American English,VSH_Exp2,2015_Sep_28_1519,
Recordings/zavi.wav,yes,z,v,a,no,i,zavi,Training,alveolar,TrainingItems,0,78,78,59,,,,,,,,,,,26,F,26,59.873723279,chinese,American English,VSH_Exp2,2015_Sep_28_1519,
Recordings/pupu.wav,no,p,p,u,yes,u,pupu,Training,bilabial,TrainingItems,0,79,79,53,,,,,,,,,,,26,F,26,59.873723279,chinese,American English,VSH_Exp2,2015_Sep_28_1519,
Recordings/tata.wav,no,t,t,a,yes,a,tata,Training,alveolar,TrainingItems,0,80,80,91,,,,,,,,,,,26,F,26,59.873723279,chinese,American English,VSH_Exp2,2015_Sep_28_1519,
Recordings/dadi.wav,yes,d,d,a,yes,i,dadi,Training,alveolar,TrainingItems,0,81,81,48,,,,,,,,,,,26,F,26,59.873723279,chinese,American English,VSH_Exp2,2015_Sep_28_1519,
Recordings/pipa.wav,no,p,p,i,yes,a,pipa,Training,bilabial,TrainingItems,0,82,82,54,,,,,,,,,,,26,F,26,59.873723279,chinese,American English,VSH_Exp2,2015_Sep_28_1519,
Recordings/bidi.wav,yes,b,d,i,yes,i,bidi,Training,bilabial,TrainingItems,0,83,83,85,,,,,,,,,,,26,F,26,59.873723279,chinese,American English,VSH_Exp2,2015_Sep_28_1519,
Recordings/diba.wav,yes,d,b,i,yes,a,diba,Training,alveolar,TrainingItems,0,84,84,46,,,,,,,,,,,26,F,26,59.873723279,chinese,American English,VSH_Exp2,2015_Sep_28_1519,
Recordings/susi.wav,no,s,s,u,no,i,susi,Training,alveolar,TrainingItems,0,85,85,51,,,,,,,,,,,26,F,26,59.873723279,chinese,American English,VSH_Exp2,2015_Sep_28_1519,
Recordings/papu.wav,no,p,p,a,yes,u,papu,Training,bilabial,TrainingItems,0,86,86,77,,,,,,,,,,,26,F,26,59.873723279,chinese,American English,VSH_Exp2,2015_Sep_28_1519,
Recordings/tuta.wav,no,t,t,u,yes,a,tuta,Training,alveolar,TrainingItems,0,87,87,63,,,,,,,,,,,26,F,26,59.873723279,chinese,American English,VSH_Exp2,2015_Sep_28_1519,
Recordings/sasi.wav,no,s,s,a,no,i,sasi,Training,alveolar,TrainingItems,0,88,88,39,,,,,,,,,,,26,F,26,59.873723279,chinese,American English,VSH_Exp2,2015_Sep_28_1519,
Recordings/tapa.wav,no,t,p,a,yes,a,tapa,Training,alveolar,TrainingItems,0,89,89,17,,,,,,,,,,,26,F,26,59.873723279,chinese,American English,VSH_Exp2,2015_Sep_28_1519,
Recordings/zivi.wav,yes,z,v,i,no,i,zivi,Training,alveolar,TrainingItems,0,90,90,73,,,,,,,,,,,26,F,26,59.873723279,chinese,American English,VSH_Exp2,2015_Sep_28_1519,
Recordings/tupi.wav,no,t,p,u,yes,i,tupi,Training,alveolar,TrainingItems,0,91,91,76,,,,,,,,,,,26,F,26,59.873723279,chinese,American English,VSH_Exp2,2015_Sep_28_1519,
Recordings/vazi.wav,yes,v,z,a,no,i,vazi,Training,bilabial,TrainingItems,0,92,92,74,,,,,,,,,,,26,F,26,59.873723279,chinese,American English,VSH_Exp2,2015_Sep_28_1519,
Recordings/vuva.wav,yes,v,v,u,no,a,vuva,Training,bilabial,TrainingItems,0,93,93,6,,,,,,,,,,,26,F,26,59.873723279,chinese,American English,VSH_Exp2,2015_Sep_28_1519,
Recordings/buda.wav,yes,b,d,u,yes,a,buda,Training,bilabial,TrainingItems,0,94,94,21,,,,,,,,,,,26,F,26,59.873723279,chinese,American English,VSH_Exp2,2015_Sep_28_1519,
Recordings/susu.wav,no,s,s,u,no,u,susu,Training,alveolar,TrainingItems,0,95,95,88,,,,,,,,,,,26,F,26,59.873723279,chinese,American English,VSH_Exp2,2015_Sep_28_1519,
Recordings/zuvu.wav,yes,z,v,u,no,u,zuvu,Training,alveolar,TrainingItems,0,96,96,72,,,,,,,,,,,26,F,26,59.873723279,chinese,American English,VSH_Exp2,2015_Sep_28_1519,
Recordings/dubi.wav,yes,d,b,u,yes,i,dubi,Training,alveolar,TrainingItems,0,97,97,70,,,,,,,,,,,26,F,26,59.873723279,chinese,American English,VSH_Exp2,2015_Sep_28_1519,
Recordings/piti.wav,no,p,t,i,yes,i,piti,Training,bilabial,TrainingItems,0,98,98,99,,,,,,,,,,,26,F,26,59.873723279,chinese,American English,VSH_Exp2,2015_Sep_28_1519,
Recordings/dabu.wav,yes,d,b,a,yes,u,dabu,Training,alveolar,TrainingItems,0,99,99,1,,,,,,,,,,,26,F,26,59.873723279,chinese,American English,VSH_Exp2,2015_Sep_28_1519,
Recordings/tipi.wav,no,t,p,i,yes,i,tipi,Training,alveolar,TrainingItems,1,0,100,2,,,,,,,,,,,26,F,26,59.873723279,chinese,American English,VSH_Exp2,2015_Sep_28_1519,
Recordings/puti.wav,no,p,t,u,yes,i,puti,Training,bilabial,TrainingItems,1,1,101,32,,,,,,,,,,,26,F,26,59.873723279,chinese,American English,VSH_Exp2,2015_Sep_28_1519,
Recordings/fafu.wav,no,f,f,a,no,u,fafu,Training,bilabial,TrainingItems,1,2,102,19,,,,,,,,,,,26,F,26,59.873723279,chinese,American English,VSH_Exp2,2015_Sep_28_1519,
Recordings/babi.wav,yes,b,b,a,yes,i,babi,Training,bilabial,TrainingItems,1,3,103,13,,,,,,,,,,,26,F,26,59.873723279,chinese,American English,VSH_Exp2,2015_Sep_28_1519,
Recordings/susi.wav,no,s,s,u,no,i,susi,Training,alveolar,TrainingItems,1,4,104,51,,,,,,,,,,,26,F,26,59.873723279,chinese,American English,VSH_Exp2,2015_Sep_28_1519,
Recordings/papu.wav,no,p,p,a,yes,u,papu,Training,bilabial,TrainingItems,1,5,105,77,,,,,,,,,,,26,F,26,59.873723279,chinese,American English,VSH_Exp2,2015_Sep_28_1519,
Recordings/budu.wav,yes,b,d,u,yes,u,budu,Training,bilabial,TrainingItems,1,6,106,40,,,,,,,,,,,26,F,26,59.873723279,chinese,American English,VSH_Exp2,2015_Sep_28_1519,
Recordings/viva.wav,yes,v,v,i,no,a,viva,Training,bilabial,TrainingItems,1,7,107,22,,,,,,,,,,,26,F,26,59.873723279,chinese,American English,VSH_Exp2,2015_Sep_28_1519,
Recordings/sisi.wav,no,s,s,i,no,i,sisi,Training,alveolar,TrainingItems,1,8,108,97,,,,,,,,,,,26,F,26,59.873723279,chinese,American English,VSH_Exp2,2015_Sep_28_1519,
Recordings/pata.wav,no,p,t,a,yes,a,pata,Training,bilabial,TrainingItems,1,9,109,12,,,,,,,,,,,26,F,26,59.873723279,chinese,American English,VSH_Exp2,2015_Sep_28_1519,
Recordings/zazu.wav,yes,z,z,a,no,u,zazu,Training,alveolar,TrainingItems,1,10,110,26,,,,,,,,,,,26,F,26,59.873723279,chinese,American English,VSH_Exp2,2015_Sep_28_1519,
Recordings/sasi.wav,no,s,s,a,no,i,sasi,Training,alveolar,TrainingItems,1,11,111,39,,,,,,,,,,,26,F,26,59.873723279,chinese,American English,VSH_Exp2,2015_Sep_28_1519,
Recordings/dudi.wav,yes,d,d,u,yes,i,dudi,Training,alveolar,TrainingItems,1,12,112,50,,,,,,,,,,,26,F,26,59.873723279,chinese,American English,VSH_Exp2,2015_Sep_28_1519,
Recordings/tata.wav,no,t,t,a,yes,a,tata,Training,alveolar,TrainingItems,1,13,113,91,,,,,,,,,,,26,F,26,59.873723279,chinese,American English,VSH_Exp2,2015_Sep_28_1519,
Recordings/buba.wav,yes,b,b,u,yes,a,buba,Training,bilabial,TrainingItems,1,14,114,16,,,,,,,,,,,26,F,26,59.873723279,chinese,American English,VSH_Exp2,2015_Sep_28_1519,
Recordings/dadu.wav,yes,d,d,a,yes,u,dadu,Training,alveolar,TrainingItems,1,15,115,5,,,,,,,,,,,26,F,26,59.873723279,chinese,American English,VSH_Exp2,2015_Sep_28_1519,
Recordings/sasu.wav,no,s,s,a,no,u,sasu,Training,alveolar,TrainingItems,1,16,116,58,,,,,,,,,,,26,F,26,59.873723279,chinese,American English,VSH_Exp2,2015_Sep_28_1519,
Recordings/tapi.wav,no,t,p,a,yes,i,tapi,Training,alveolar,TrainingItems,1,17,117,56,,,,,,,,,,,26,F,26,59.873723279,chinese,American English,VSH_Exp2,2015_Sep_28_1519,
Recordings/tuti.wav,no,t,t,u,yes,i,tuti,Training,alveolar,TrainingItems,1,18,118,33,,,,,,,,,,,26,F,26,59.873723279,chinese,American English,VSH_Exp2,2015_Sep_28_1519,
Recordings/vazu.wav,yes,v,z,a,no,u,vazu,Training,bilabial,TrainingItems,1,19,119,38,,,,,,,,,,,26,F,26,59.873723279,chinese,American English,VSH_Exp2,2015_Sep_28_1519,
Recordings/duba.wav,yes,d,b,u,yes,a,duba,Training,alveolar,TrainingItems,1,20,120,30,,,,,,,,,,,26,F,26,59.873723279,chinese,American English,VSH_Exp2,2015_Sep_28_1519,
Recordings/putu.wav,no,p,t,u,yes,u,putu,Training,bilabial,TrainingItems,1,21,121,94,,,,,,,,,,,26,F,26,59.873723279,chinese,American English,VSH_Exp2,2015_Sep_28_1519,
Recordings/tuta.wav,no,t,t,u,yes,a,tuta,Training,alveolar,TrainingItems,1,22,122,63,,,,,,,,,,,26,F,26,59.873723279,chinese,American English,VSH_Exp2,2015_Sep_28_1519,
Recordings/dibu.wav,yes,d,b,i,yes,u,dibu,Training,alveolar,TrainingItems,1,23,123,78,,,,,,,,,,,26,F,26,59.873723279,chinese,American English,VSH_Exp2,2015_Sep_28_1519,
Recordings/tita.wav,no,t,t,i,yes,a,tita,Training,alveolar,TrainingItems,1,24,124,45,,,,,,,,,,,26,F,26,59.873723279,chinese,American English,VSH_Exp2,2015_Sep_28_1519,
Recordings/zavi.wav,yes,z,v,a,no,i,zavi,Training,alveolar,TrainingItems,1,25,125,59,,,,,,,,,,,26,F,26,59.873723279,chinese,American English,VSH_Exp2,2015_Sep_28_1519,
Recordings/pati.wav,no,p,t,a,yes,i,pati,Training,bilabial,TrainingItems,1,26,126,18,,,,,,,,,,,26,F,26,59.873723279,chinese,American English,VSH_Exp2,2015_Sep_28_1519,
Recordings/zivu.wav,yes,z,v,i,no,u,zivu,Training,alveolar,TrainingItems,1,27,127,93,,,,,,,,,,,26,F,26,59.873723279,chinese,American English,VSH_Exp2,2015_Sep_28_1519,
Recordings/zuzu.wav,yes,z,z,u,no,u,zuzu,Training,alveolar,TrainingItems,1,28,128,27,,,,,,,,,,,26,F,26,59.873723279,chinese,American English,VSH_Exp2,2015_Sep_28_1519,
Recordings/badu.wav,yes,b,d,a,yes,u,badu,Training,bilabial,TrainingItems,1,29,129,7,,,,,,,,,,,26,F,26,59.873723279,chinese,American English,VSH_Exp2,2015_Sep_28_1519,
Recordings/pita.wav,no,p,t,i,yes,a,pita,Training,bilabial,TrainingItems,1,30,130,8,,,,,,,,,,,26,F,26,59.873723279,chinese,American English,VSH_Exp2,2015_Sep_28_1519,
Recordings/fifi.wav,no,f,f,i,no,i,fifi,Training,bilabial,TrainingItems,1,31,131,79,,,,,,,,,,,26,F,26,59.873723279,chinese,American English,VSH_Exp2,2015_Sep_28_1519,
Recordings/vavu.wav,yes,v,v,a,no,u,vavu,Training,bilabial,TrainingItems,1,32,132,10,,,,,,,,,,,26,F,26,59.873723279,chinese,American English,VSH_Exp2,2015_Sep_28_1519,
Recordings/vazi.wav,yes,v,z,a,no,i,vazi,Training,bilabial,TrainingItems,1,33,133,74,,,,,,,,,,,26,F,26,59.873723279,chinese,American English,VSH_Exp2,2015_Sep_28_1519,
Recordings/duda.wav,yes,d,d,u,yes,a,duda,Training,alveolar,TrainingItems,1,34,134,62,,,,,,,,,,,26,F,26,59.873723279,chinese,American English,VSH_Exp2,2015_Sep_28_1519,
Recordings/zuvi.wav,yes,z,v,u,no,i,zuvi,Training,alveolar,TrainingItems,1,35,135,67,,,,,,,,,,,26,F,26,59.873723279,chinese,American English,VSH_Exp2,2015_Sep_28_1519,
Recordings/vavi.wav,yes,v,v,a,no,i,vavi,Training,bilabial,TrainingItems,1,36,136,96,,,,,,,,,,,26,F,26,59.873723279,chinese,American English,VSH_Exp2,2015_Sep_28_1519,
Recordings/viza.wav,yes,v,z,i,no,a,viza,Training,bilabial,TrainingItems,1,37,137,60,,,,,,,,,,,26,F,26,59.873723279,chinese,American English,VSH_Exp2,2015_Sep_28_1519,
Recordings/bibi.wav,yes,b,b,i,yes,i,bibi,Training,bilabial,TrainingItems,1,38,138,57,,,,,,,,,,,26,F,26,59.873723279,chinese,American English,VSH_Exp2,2015_Sep_28_1519,
Recordings/titi.wav,no,t,t,i,yes,i,titi,Training,alveolar,TrainingItems,1,39,139,89,,,,,,,,,,,26,F,26,59.873723279,chinese,American English,VSH_Exp2,2015_Sep_28_1519,
Recordings/bidu.wav,yes,b,d,i,yes,u,bidu,Training,bilabial,TrainingItems,1,40,140,14,,,,,,,,,,,26,F,26,59.873723279,chinese,American English,VSH_Exp2,2015_Sep_28_1519,
Recordings/dubu.wav,yes,d,b,u,yes,u,dubu,Training,alveolar,TrainingItems,1,41,141,86,,,,,,,,,,,26,F,26,59.873723279,chinese,American English,VSH_Exp2,2015_Sep_28_1519,
Recordings/bada.wav,yes,b,d,a,yes,a,bada,Training,bilabial,TrainingItems,1,42,142,11,,,,,,,,,,,26,F,26,59.873723279,chinese,American English,VSH_Exp2,2015_Sep_28_1519,
Recordings/zuza.wav,yes,z,z,u,no,a,zuza,Training,alveolar,TrainingItems,1,43,143,49,,,,,,,,,,,26,F,26,59.873723279,chinese,American English,VSH_Exp2,2015_Sep_28_1519,
Recordings/bibu.wav,yes,b,b,i,yes,u,bibu,Training,bilabial,TrainingItems,1,44,144,28,,,,,,,,,,,26,F,26,59.873723279,chinese,American English,VSH_Exp2,2015_Sep_28_1519,
Recordings/tupu.wav,no,t,p,u,yes,u,tupu,Training,alveolar,TrainingItems,1,45,145,23,,,,,,,,,,,26,F,26,59.873723279,chinese,American English,VSH_Exp2,2015_Sep_28_1519,
Recordings/bida.wav,yes,b,d,i,yes,a,bida,Training,bilabial,TrainingItems,1,46,146,47,,,,,,,,,,,26,F,26,59.873723279,chinese,American English,VSH_Exp2,2015_Sep_28_1519,
Recordings/sisa.wav,no,s,s,i,no,a,sisa,Training,alveolar,TrainingItems,1,47,147,55,,,,,,,,,,,26,F,26,59.873723279,chinese,American English,VSH_Exp2,2015_Sep_28_1519,
Recordings/fufa.wav,no,f,f,u,no,a,fufa,Training,bilabial,TrainingItems,1,48,148,66,,,,,,,,,,,26,F,26,59.873723279,chinese,American English,VSH_Exp2,2015_Sep_28_1519,
Recordings/dabu.wav,yes,d,b,a,yes,u,dabu,Training,alveolar,TrainingItems,1,49,149,1,,,,,,,,,,,26,F,26,59.873723279,chinese,American English,VSH_Exp2,2015_Sep_28_1519,
Recordings/zizu.wav,yes,z,z,i,no,u,zizu,Training,alveolar,TrainingItems,1,50,150,29,,,,,,,,,,,26,F,26,59.873723279,chinese,American English,VSH_Exp2,2015_Sep_28_1519,
Recordings/zava.wav,yes,z,v,a,no,a,zava,Training,alveolar,TrainingItems,1,51,151,41,,,,,,,,,,,26,F,26,59.873723279,chinese,American English,VSH_Exp2,2015_Sep_28_1519,
Recordings/dubi.wav,yes,d,b,u,yes,i,dubi,Training,alveolar,TrainingItems,1,52,152,70,,,,,,,,,,,26,F,26,59.873723279,chinese,American English,VSH_Exp2,2015_Sep_28_1519,
Recordings/vuza.wav,yes,v,z,u,no,a,vuza,Training,bilabial,TrainingItems,1,53,153,90,,,,,,,,,,,26,F,26,59.873723279,chinese,American English,VSH_Exp2,2015_Sep_28_1519,
Recordings/zavu.wav,yes,z,v,a,no,u,zavu,Training,alveolar,TrainingItems,1,54,154,36,,,,,,,,,,,26,F,26,59.873723279,chinese,American English,VSH_Exp2,2015_Sep_28_1519,
Recordings/vaza.wav,yes,v,z,a,no,a,vaza,Training,bilabial,TrainingItems,1,55,155,98,,,,,,,,,,,26,F,26,59.873723279,chinese,American English,VSH_Exp2,2015_Sep_28_1519,
Recordings/vivu.wav,yes,v,v,i,no,u,vivu,Training,bilabial,TrainingItems,1,56,156,61,,,,,,,,,,,26,F,26,59.873723279,chinese,American English,VSH_Exp2,2015_Sep_28_1519,
Recordings/pupi.wav,no,p,p,u,yes,i,pupi,Training,bilabial,TrainingItems,1,57,157,81,,,,,,,,,,,26,F,26,59.873723279,chinese,American English,VSH_Exp2,2015_Sep_28_1519,
Recordings/budi.wav,yes,b,d,u,yes,i,budi,Training,bilabial,TrainingItems,1,58,158,75,,,,,,,,,,,26,F,26,59.873723279,chinese,American English,VSH_Exp2,2015_Sep_28_1519,
Recordings/badi.wav,yes,b,d,a,yes,i,badi,Training,bilabial,TrainingItems,1,59,159,34,,,,,,,,,,,26,F,26,59.873723279,chinese,American English,VSH_Exp2,2015_Sep_28_1519,
Recordings/tutu.wav,no,t,t,u,yes,u,tutu,Training,alveolar,TrainingItems,1,60,160,65,,,,,,,,,,,26,F,26,59.873723279,chinese,American English,VSH_Exp2,2015_Sep_28_1519,
Recordings/buda.wav,yes,b,d,u,yes,a,buda,Training,bilabial,TrainingItems,1,61,161,21,,,,,,,,,,,26,F,26,59.873723279,chinese,American English,VSH_Exp2,2015_Sep_28_1519,
Recordings/pupu.wav,no,p,p,u,yes,u,pupu,Training,bilabial,TrainingItems,1,62,162,53,,,,,,,,,,,26,F,26,59.873723279,chinese,American English,VSH_Exp2,2015_Sep_28_1519,
Recordings/diba.wav,yes,d,b,i,yes,a,diba,Training,alveolar,TrainingItems,1,63,163,46,,,,,,,,,,,26,F,26,59.873723279,chinese,American English,VSH_Exp2,2015_Sep_28_1519,
Recordings/zuzi.wav,yes,z,z,u,no,i,zuzi,Training,alveolar,TrainingItems,1,64,164,37,,,,,,,,,,,26,F,26,59.873723279,chinese,American English,VSH_Exp2,2015_Sep_28_1519,
Recordings/tapu.wav,no,t,p,a,yes,u,tapu,Training,alveolar,TrainingItems,1,65,165,43,,,,,,,,,,,26,F,26,59.873723279,chinese,American English,VSH_Exp2,2015_Sep_28_1519,
Recordings/dibi.wav,yes,d,b,i,yes,i,dibi,Training,alveolar,TrainingItems,1,66,166,25,,,,,,,,,,,26,F,26,59.873723279,chinese,American English,VSH_Exp2,2015_Sep_28_1519,
Recordings/didi.wav,yes,d,d,i,yes,i,didi,Training,alveolar,TrainingItems,1,67,167,31,,,,,,,,,,,26,F,26,59.873723279,chinese,American English,VSH_Exp2,2015_Sep_28_1519,
Recordings/titu.wav,no,t,t,i,yes,u,titu,Training,alveolar,TrainingItems,1,68,168,87,,,,,,,,,,,26,F,26,59.873723279,chinese,American English,VSH_Exp2,2015_Sep_28_1519,
Recordings/vuva.wav,yes,v,v,u,no,a,vuva,Training,bilabial,TrainingItems,1,69,169,6,,,,,,,,,,,26,F,26,59.873723279,chinese,American English,VSH_Exp2,2015_Sep_28_1519,
Recordings/fifu.wav,no,f,f,i,no,u,fifu,Training,bilabial,TrainingItems,1,70,170,4,,,,,,,,,,,26,F,26,59.873723279,chinese,American English,VSH_Exp2,2015_Sep_28_1519,
Recordings/bubi.wav,yes,b,b,u,yes,i,bubi,Training,bilabial,TrainingItems,1,71,171,3,,,,,,,,,,,26,F,26,59.873723279,chinese,American English,VSH_Exp2,2015_Sep_28_1519,
Recordings/zuva.wav,yes,z,v,u,no,a,zuva,Training,alveolar,TrainingItems,1,72,172,9,,,,,,,,,,,26,F,26,59.873723279,chinese,American English,VSH_Exp2,2015_Sep_28_1519,
Recordings/daba.wav,yes,d,b,a,yes,a,daba,Training,alveolar,TrainingItems,1,73,173,15,,,,,,,,,,,26,F,26,59.873723279,chinese,American English,VSH_Exp2,2015_Sep_28_1519,
Recordings/pipu.wav,no,p,p,i,yes,u,pipu,Training,bilabial,TrainingItems,1,74,174,84,,,,,,,,,,,26,F,26,59.873723279,chinese,American English,VSH_Exp2,2015_Sep_28_1519,
Recordings/dudu.wav,yes,d,d,u,yes,u,dudu,Training,alveolar,TrainingItems,1,75,175,82,,,,,,,,,,,26,F,26,59.873723279,chinese,American English,VSH_Exp2,2015_Sep_28_1519,
Recordings/papi.wav,no,p,p,a,yes,i,papi,Training,bilabial,TrainingItems,1,76,176,69,,,,,,,,,,,26,F,26,59.873723279,chinese,American English,VSH_Exp2,2015_Sep_28_1519,
Recordings/tipa.wav,no,t,p,i,yes,a,tipa,Training,alveolar,TrainingItems,1,77,177,52,,,,,,,,,,,26,F,26,59.873723279,chinese,American English,VSH_Exp2,2015_Sep_28_1519,
Recordings/tatu.wav,no,t,t,a,yes,u,tatu,Training,alveolar,TrainingItems,1,78,178,24,,,,,,,,,,,26,F,26,59.873723279,chinese,American English,VSH_Exp2,2015_Sep_28_1519,
Recordings/fufi.wav,no,f,f,u,no,i,fufi,Training,bilabial,TrainingItems,1,79,179,44,,,,,,,,,,,26,F,26,59.873723279,chinese,American English,VSH_Exp2,2015_Sep_28_1519,
Recordings/fafa.wav,no,f,f,a,no,a,fafa,Training,bilabial,TrainingItems,1,80,180,92,,,,,,,,,,,26,F,26,59.873723279,chinese,American English,VSH_Exp2,2015_Sep_28_1519,
Recordings/tapa.wav,no,t,p,a,yes,a,tapa,Training,alveolar,TrainingItems,1,81,181,17,,,,,,,,,,,26,F,26,59.873723279,chinese,American English,VSH_Exp2,2015_Sep_28_1519,
Recordings/bubu.wav,yes,b,b,u,yes,u,bubu,Training,bilabial,TrainingItems,1,82,182,68,,,,,,,,,,,26,F,26,59.873723279,chinese,American English,VSH_Exp2,2015_Sep_28_1519,
Recordings/zivi.wav,yes,z,v,i,no,i,zivi,Training,alveolar,TrainingItems,1,83,183,73,,,,,,,,,,,26,F,26,59.873723279,chinese,American English,VSH_Exp2,2015_Sep_28_1519,
Recordings/zuvu.wav,yes,z,v,u,no,u,zuvu,Training,alveolar,TrainingItems,1,84,184,72,,,,,,,,,,,26,F,26,59.873723279,chinese,American English,VSH_Exp2,2015_Sep_28_1519,
Recordings/dabi.wav,yes,d,b,a,yes,i,dabi,Training,alveolar,TrainingItems,1,85,185,0,,,,,,,,,,,26,F,26,59.873723279,chinese,American English,VSH_Exp2,2015_Sep_28_1519,
Recordings/susu.wav,no,s,s,u,no,u,susu,Training,alveolar,TrainingItems,1,86,186,88,,,,,,,,,,,26,F,26,59.873723279,chinese,American English,VSH_Exp2,2015_Sep_28_1519,
Recordings/bidi.wav,yes,b,d,i,yes,i,bidi,Training,bilabial,TrainingItems,1,87,187,85,,,,,,,,,,,26,F,26,59.873723279,chinese,American English,VSH_Exp2,2015_Sep_28_1519,
Recordings/vuzu.wav,yes,v,z,u,no,u,vuzu,Training,bilabial,TrainingItems,1,88,188,71,,,,,,,,,,,26,F,26,59.873723279,chinese,American English,VSH_Exp2,2015_Sep_28_1519,
Recordings/babu.wav,yes,b,b,a,yes,u,babu,Training,bilabial,TrainingItems,1,89,189,42,,,,,,,,,,,26,F,26,59.873723279,chinese,American English,VSH_Exp2,2015_Sep_28_1519,
Recordings/zazi.wav,yes,z,z,a,no,i,zazi,Training,alveolar,TrainingItems,1,90,190,64,,,,,,,,,,,26,F,26,59.873723279,chinese,American English,VSH_Exp2,2015_Sep_28_1519,
Recordings/zaza.wav,yes,z,z,a,no,a,zaza,Training,alveolar,TrainingItems,1,91,191,83,,,,,,,,,,,26,F,26,59.873723279,chinese,American English,VSH_Exp2,2015_Sep_28_1519,
Recordings/dadi.wav,yes,d,d,a,yes,i,dadi,Training,alveolar,TrainingItems,1,92,192,48,,,,,,,,,,,26,F,26,59.873723279,chinese,American English,VSH_Exp2,2015_Sep_28_1519,
Recordings/tupi.wav,no,t,p,u,yes,i,tupi,Training,alveolar,TrainingItems,1,93,193,76,,,,,,,,,,,26,F,26,59.873723279,chinese,American English,VSH_Exp2,2015_Sep_28_1519,
Recordings/biba.wav,yes,b,b,i,yes,a,biba,Training,bilabial,TrainingItems,1,94,194,20,,,,,,,,,,,26,F,26,59.873723279,chinese,American English,VSH_Exp2,2015_Sep_28_1519,
Recordings/zizi.wav,yes,z,z,i,no,i,zizi,Training,alveolar,TrainingItems,1,95,195,80,,,,,,,,,,,26,F,26,59.873723279,chinese,American English,VSH_Exp2,2015_Sep_28_1519,
Recordings/piti.wav,no,p,t,i,yes,i,piti,Training,bilabial,TrainingItems,1,96,196,99,,,,,,,,,,,26,F,26,59.873723279,chinese,American English,VSH_Exp2,2015_Sep_28_1519,
Recordings/fifa.wav,no,f,f,i,no,a,fifa,Training,bilabial,TrainingItems,1,97,197,95,,,,,,,,,,,26,F,26,59.873723279,chinese,American English,VSH_Exp2,2015_Sep_28_1519,
Recordings/fufu.wav,no,f,f,u,no,u,fufu,Training,bilabial,TrainingItems,1,98,198,35,,,,,,,,,,,26,F,26,59.873723279,chinese,American English,VSH_Exp2,2015_Sep_28_1519,
Recordings/pipa.wav,no,p,p,i,yes,a,pipa,Training,bilabial,TrainingItems,1,99,199,54,,,,,,,,,,,26,F,26,59.873723279,chinese,American English,VSH_Exp2,2015_Sep_28_1519,
,,,,,,,,,,,,,,,,,,,,,space,8.0597589016,,,26,F,26,59.873723279,chinese,American English,VSH_Exp2,2015_Sep_28_1519,
Recordings/vafa.wav,yes,v,f,a,no,a,vafa,Controls,bilabial,StopControls,,,,,0,0,0,34,,,,,Yes,6.943,26,F,26,59.873723279,chinese,American English,VSH_Exp2,2015_Sep_28_1519,
Recordings/tapu.wav,no,t,p,a,yes,u,tapu,Test,alveolar,OldTestStimuli,,,,,0,1,1,8,,,,,Yes,1.688,26,F,26,59.873723279,chinese,American English,VSH_Exp2,2015_Sep_28_1519,
Recordings/dupi.wav,yes,d,p,u,yes,i,dupi,Controls,alveolar,StopControls,,,,,0,2,2,24,,,,,Yes,1.454,26,F,26,59.873723279,chinese,American English,VSH_Exp2,2015_Sep_28_1519,
Recordings/vuva.wav,yes,v,v,u,no,a,vuva,Test,bilabial,OldTestStimuli,,,,,0,3,3,3,,,,,Yes,2.055,26,F,26,59.873723279,chinese,American English,VSH_Exp2,2015_Sep_28_1519,
Recordings/dafu.wav,yes,d,f,a,yes,u,dafu,Controls,alveolar,NoPatternControls,,,,,0,4,4,49,,,,,Yes,1.938,26,F,26,59.873723279,chinese,American English,VSH_Exp2,2015_Sep_28_1519,
Recordings/dafi.wav,yes,d,f,a,yes,i,dafi,Controls,alveolar,NoPatternControls,,,,,0,5,5,48,,,,,Yes,1.654,26,F,26,59.873723279,chinese,American English,VSH_Exp2,2015_Sep_28_1519,
Recordings/tapa.wav,no,t,p,a,yes,a,tapa,Test,alveolar,OldTestStimuli,,,,,0,6,6,0,,,,,Yes,1.421,26,F,26,59.873723279,chinese,American English,VSH_Exp2,2015_Sep_28_1519,
Recordings/fupa.wav,no,f,p,u,no,a,fupa,Controls,bilabial,VoicingControls,,,,,0,7,7,40,,,,,Yes,2.272,26,F,26,59.873723279,chinese,American English,VSH_Exp2,2015_Sep_28_1519,
Recordings/fisi.wav,no,f,s,i,no,i,fisi,Test,bilabial,NewTestStimuli,,,,,0,8,8,15,,,,,Yes,1.153,26,F,26,59.873723279,chinese,American English,VSH_Exp2,2015_Sep_28_1519,
Recordings/buzi.wav,yes,b,z,u,yes,i,buzi,Controls,bilabial,VoicingControls,,,,,0,9,9,43,,,,,Yes,1.687,26,F,26,59.873723279,chinese,American English,VSH_Exp2,2015_Sep_28_1519,
Recordings/pusi.wav,no,p,s,u,yes,i,pusi,Controls,bilabial,VoicingControls,,,,,0,10,10,44,,,,,Yes,0.92,26,F,26,59.873723279,chinese,American English,VSH_Exp2,2015_Sep_28_1519,
Recordings/bita.wav,yes,b,t,i,yes,a,bita,Controls,bilabial,StopControls,,,,,0,11,11,27,,,,,Yes,0.937,26,F,26,59.873723279,chinese,American English,VSH_Exp2,2015_Sep_28_1519,
Recordings/vabi.wav,yes,v,b,a,no,i,vabi,Controls,bilabial,VoicingControls,,,,,0,12,12,42,,,,,Yes,0.77,26,F,26,59.873723279,chinese,American English,VSH_Exp2,2015_Sep_28_1519,
Recordings/safa.wav,no,s,f,a,no,a,safa,Test,alveolar,NewTestStimuli,,,,,0,13,13,14,,,,,Yes,0.952,26,F,26,59.873723279,chinese,American English,VSH_Exp2,2015_Sep_28_1519,
Recordings/zutu.wav,yes,z,t,u,no,u,zutu,Controls,alveolar,NoPatternControls,,,,,0,14,14,57,,,,,Yes,0.852,26,F,26,59.873723279,chinese,American English,VSH_Exp2,2015_Sep_28_1519,
Recordings/fasi.wav,no,f,s,a,no,i,fasi,Test,bilabial,NewTestStimuli,,,,,0,15,15,20,,,,,Yes,1.087,26,F,26,59.873723279,chinese,American English,VSH_Exp2,2015_Sep_28_1519,
Recordings/tufa.wav,no,t,f,u,yes,a,tufa,Controls,alveolar,VoicingControls,,,,,0,16,16,38,,,,,Yes,1.454,26,F,26,59.873723279,chinese,American English,VSH_Exp2,2015_Sep_28_1519,
Recordings/buda.wav,yes,b,d,u,yes,a,buda,Test,bilabial,OldTestStimuli,,,,,0,17,17,5,,,,,Yes,1.788,26,F,26,59.873723279,chinese,American English,VSH_Exp2,2015_Sep_28_1519,
Recordings/tava.wav,no,t,v,a,yes,a,tava,Controls,alveolar,NoPatternControls,,,,,0,18,18,50,,,,,Yes,1.588,26,F,26,59.873723279,chinese,American English,VSH_Exp2,2015_Sep_28_1519,
Recordings/pizu.wav,no,p,z,i,yes,u,pizu,Controls,bilabial,NoPatternControls,,,,,0,19,19,56,,,,,Yes,1.621,26,F,26,59.873723279,chinese,American English,VSH_Exp2,2015_Sep_28_1519,
Recordings/safu.wav,no,s,f,a,no,u,safu,Test,alveolar,NewTestStimuli,,,,,0,20,20,21,,,,,Yes,1.837,26,F,26,59.873723279,chinese,American English,VSH_Exp2,2015_Sep_28_1519,
Recordings/zuva.wav,yes,z,v,u,no,a,zuva,Test,alveolar,OldTestStimuli,,,,,0,21,21,11,,,,,Yes,1.854,26,F,26,59.873723279,chinese,American English,VSH_Exp2,2015_Sep_28_1519,
Recordings/badi.wav,yes,b,d,a,yes,i,badi,Test,bilabial,OldTestStimuli,,,,,0,22,22,4,,,,,Yes,1.753,26,F,26,59.873723279,chinese,American English,VSH_Exp2,2015_Sep_28_1519,
Recordings/tuda.wav,no,t,d,u,yes,a,tuda,Controls,alveolar,StopControls,,,,,0,23,23,26,,,,,Yes,2.622,26,F,26,59.873723279,chinese,American English,VSH_Exp2,2015_Sep_28_1519,
Recordings/basa.wav,yes,b,s,a,yes,a,basa,Controls,bilabial,NoPatternControls,,,,,0,24,24,55,,,,,Yes,0.97,26,F,26,59.873723279,chinese,American English,VSH_Exp2,2015_Sep_28_1519,
Recordings/sifi.wav,no,s,f,i,no,i,sifi,Test,alveolar,NewTestStimuli,,,,,0,25,25,19,,,,,Yes,0.986,26,F,26,59.873723279,chinese,American English,VSH_Exp2,2015_Sep_28_1519,
Recordings/pudi.wav,no,p,d,u,yes,i,pudi,Controls,bilabial,StopControls,,,,,0,26,26,32,,,,,Yes,1.32,26,F,26,59.873723279,chinese,American English,VSH_Exp2,2015_Sep_28_1519,
Recordings/vafi.wav,yes,v,f,a,no,i,vafi,Controls,bilabial,StopControls,,,,,0,27,27,30,,,,,Yes,2.888,26,F,26,59.873723279,chinese,American English,VSH_Exp2,2015_Sep_28_1519,
Recordings/basu.wav,yes,b,s,a,yes,u,basu,Controls,bilabial,NoPatternControls,,,,,0,28,28,51,,,,,Yes,0.852,26,F,26,59.873723279,chinese,American English,VSH_Exp2,2015_Sep_28_1519,
Recordings/vita.wav,yes,v,t,i,no,a,vita,Controls,bilabial,NoPatternControls,,,,,0,29,29,54,,,,,Yes,0.904,26,F,26,59.873723279,chinese,American English,VSH_Exp2,2015_Sep_28_1519,
Recordings/sifu.wav,no,s,f,i,no,u,sifu,Test,alveolar,NewTestStimuli,,,,,0,30,30,18,,,,,Yes,1.687,26,F,26,59.873723279,chinese,American English,VSH_Exp2,2015_Sep_28_1519,
Recordings/zuvi.wav,yes,z,v,u,no,i,zuvi,Test,alveolar,OldTestStimuli,,,,,0,31,31,2,,,,,Yes,1.37,26,F,26,59.873723279,chinese,American English,VSH_Exp2,2015_Sep_28_1519,
Recordings/ditu.wav,yes,d,t,i,yes,u,ditu,Controls,alveolar,StopControls,,,,,0,32,32,25,,,,,Yes,0.719,26,F,26,59.873723279,chinese,American English,VSH_Exp2,2015_Sep_28_1519,
Recordings/dapi.wav,yes,d,p,a,yes,i,dapi,Controls,alveolar,StopControls,,,,,0,33,33,29,,,,,Yes,1.687,26,F,26,59.873723279,chinese,American English,VSH_Exp2,2015_Sep_28_1519,
Recordings/zuba.wav,yes,z,b,u,no,a,zuba,Controls,alveolar,VoicingControls,,,,,0,34,34,45,,,,,Yes,1.054,26,F,26,59.873723279,chinese,American English,VSH_Exp2,2015_Sep_28_1519,
Recordings/fifi.wav,no,f,f,i,no,i,fifi,Test,bilabial,OldTestStimuli,,,,,0,35,35,10,,,,,Yes,1.019,26,F,26,59.873723279,chinese,American English,VSH_Exp2,2015_Sep_28_1519,
Recordings/fisu.wav,no,f,s,i,no,u,fisu,Test,bilabial,NewTestStimuli,,,,,0,36,36,17,,,,,Yes,0.87,26,F,26,59.873723279,chinese,American English,VSH_Exp2,2015_Sep_28_1519,
Recordings/dizu.wav,yes,d,z,i,yes,u,dizu,Controls,alveolar,VoicingControls,,,,,0,37,37,37,,,,,Yes,0.92,26,F,26,59.873723279,chinese,American English,VSH_Exp2,2015_Sep_28_1519,
Recordings/davi.wav,yes,d,v,a,yes,i,davi,Controls,alveolar,VoicingControls,,,,,0,38,38,41,,,,,Yes,0.786,26,F,26,59.873723279,chinese,American English,VSH_Exp2,2015_Sep_28_1519,
Recordings/sufi.wav,no,s,f,u,no,i,sufi,Test,alveolar,NewTestStimuli,,,,,0,39,39,13,,,,,Yes,0.869,26,F,26,59.873723279,chinese,American English,VSH_Exp2,2015_Sep_28_1519,
Recordings/duvi.wav,yes,d,v,u,yes,i,duvi,Controls,alveolar,VoicingControls,,,,,0,40,40,36,,,,,Yes,0.803,26,F,26,59.873723279,chinese,American English,VSH_Exp2,2015_Sep_28_1519,
Recordings/fuba.wav,no,f,b,u,no,a,fuba,Controls,bilabial,NoPatternControls,,,,,0,41,41,52,,,,,Yes,1.12,26,F,26,59.873723279,chinese,American English,VSH_Exp2,2015_Sep_28_1519,
Recordings/dusu.wav,yes,d,s,u,yes,u,dusu,Controls,alveolar,NoPatternControls,,,,,0,42,42,53,,,,,Yes,1.805,26,F,26,59.873723279,chinese,American English,VSH_Exp2,2015_Sep_28_1519,
Recordings/pati.wav,no,p,t,a,yes,i,pati,Test,bilabial,OldTestStimuli,,,,,0,43,43,1,,,,,Yes,0.97,26,F,26,59.873723279,chinese,American English,VSH_Exp2,2015_Sep_28_1519,
Recordings/vavu.wav,yes,v,v,a,no,u,vavu,Test,bilabial,OldTestStimuli,,,,,0,44,44,7,,,,,Yes,1.336,26,F,26,59.873723279,chinese,American English,VSH_Exp2,2015_Sep_28_1519,
Recordings/fisa.wav,no,f,s,i,no,a,fisa,Test,bilabial,NewTestStimuli,,,,,0,45,45,23,,,,,Yes,1.119,26,F,26,59.873723279,chinese,American English,VSH_Exp2,2015_Sep_28_1519,
Recordings/bifa.wav,yes,b,f,i,yes,a,bifa,Controls,bilabial,NoPatternControls,,,,,0,46,46,59,,,,,Yes,1.654,26,F,26,59.873723279,chinese,American English,VSH_Exp2,2015_Sep_28_1519,
Recordings/fasa.wav,no,f,s,a,no,a,fasa,Test,bilabial,NewTestStimuli,,,,,0,47,47,12,,,,,Yes,0.819,26,F,26,59.873723279,chinese,American English,VSH_Exp2,2015_Sep_28_1519,
Recordings/zufa.wav,yes,z,f,u,no,a,zufa,Controls,alveolar,StopControls,,,,,0,48,48,33,,,,,Yes,1.354,26,F,26,59.873723279,chinese,American English,VSH_Exp2,2015_Sep_28_1519,
Recordings/buvi.wav,yes,b,v,u,yes,i,buvi,Controls,bilabial,VoicingControls,,,,,0,49,49,47,,,,,Yes,1.487,26,F,26,59.873723279,chinese,American English,VSH_Exp2,2015_Sep_28_1519,
Recordings/fusa.wav,no,f,s,u,no,a,fusa,Test,bilabial,NewTestStimuli,,,,,0,50,50,16,,,,,Yes,2.471,26,F,26,59.873723279,chinese,American English,VSH_Exp2,2015_Sep_28_1519,
Recordings/fizi.wav,no,f,z,i,no,i,fizi,Controls,bilabial,StopControls,,,,,0,51,51,28,,,,,Yes,1.705,26,F,26,59.873723279,chinese,American English,VSH_Exp2,2015_Sep_28_1519,
Recordings/biza.wav,yes,b,z,i,yes,a,biza,Controls,bilabial,VoicingControls,,,,,0,52,52,39,,,,,Yes,0.919,26,F,26,59.873723279,chinese,American English,VSH_Exp2,2015_Sep_28_1519,
Recordings/pupi.wav,no,p,p,u,yes,i,pupi,Test,bilabial,OldTestStimuli,,,,,0,53,53,6,,,,,Yes,0.937,26,F,26,59.873723279,chinese,American English,VSH_Exp2,2015_Sep_28_1519,
Recordings/viti.wav,yes,v,t,i,no,i,viti,Controls,bilabial,NoPatternControls,,,,,0,54,54,58,,,,,Yes,1.22,26,F,26,59.873723279,chinese,American English,VSH_Exp2,2015_Sep_28_1519,
Recordings/bupi.wav,yes,b,p,u,yes,i,bupi,Controls,bilabial,StopControls,,,,,0,55,55,35,,,,,Yes,1.653,26,F,26,59.873723279,chinese,American English,VSH_Exp2,2015_Sep_28_1519,
Recordings/buti.wav,yes,b,t,u,yes,i,buti,Controls,bilabial,StopControls,,,,,0,56,56,31,,,,,Yes,1.219,26,F,26,59.873723279,chinese,American English,VSH_Exp2,2015_Sep_28_1519,
Recordings/vaba.wav,yes,v,b,a,no,a,vaba,Controls,bilabial,VoicingControls,,,,,0,57,57,46,,,,,Yes,0.887,26,F,26,59.873723279,chinese,American English,VSH_Exp2,2015_Sep_28_1519,
Recordings/putu.wav,no,p,t,u,yes,u,putu,Test,bilabial,OldTestStimuli,,,,,0,58,58,9,,,,,Yes,0.72,26,F,26,59.873723279,chinese,American English,VSH_Exp2,2015_Sep_28_1519,
Recordings/fusu.wav,no,f,s,u,no,u,fusu,Test,bilabial,NewTestStimuli,,,,,0,59,59,22,,,,,Yes,0.62,26,F,26,59.873723279,chinese,American English,VSH_Exp2,2015_Sep_28_1519,
