SOUND,VOICING,SEGMENT,SEGMENT3,SEGMENT2,STOP,SEGMENT4,STIMULUS,GENERAL_TYPE,PLACE,TYPE,trials.thisRepN,trials.thisTrialN,trials.thisN,trials.thisIndex,trials_2.thisRepN,trials_2.thisTrialN,trials_2.thisN,trials_2.thisIndex,SpaceBar.keys,SpaceBar.rt,key_resp_2.keys,key_resp_2.rt,rating.response,rating.rt,participant,Gender,Age,frameRate,OtherLanguages,NativeLanguage,expName,date,
,,,,,,,,,,,,,,,,,,,space,2.52018809319,,,,,75,F,20,59.8311895615,"French, German, Spanish, Scottish Gaelic",American English,VSH_Exp2,2015_Nov_18_1718,
Recordings/sasa.wav,no,s,s,a,no,a,sasa,Training,alveolar,TrainingItems,0,0,0,8,,,,,,,,,,,75,F,20,59.8311895615,"French, German, Spanish, Scottish Gaelic",American English,VSH_Exp2,2015_Nov_18_1718,
Recordings/sisi.wav,no,s,s,i,no,i,sisi,Training,alveolar,TrainingItems,0,1,1,21,,,,,,,,,,,75,F,20,59.8311895615,"French, German, Spanish, Scottish Gaelic",American English,VSH_Exp2,2015_Nov_18_1718,
Recordings/didi.wav,yes,d,d,i,yes,i,didi,Training,alveolar,TrainingItems,0,2,2,0,,,,,,,,,,,75,F,20,59.8311895615,"French, German, Spanish, Scottish Gaelic",American English,VSH_Exp2,2015_Nov_18_1718,
Recordings/ziza.wav,yes,z,z,i,no,a,ziza,Training,alveolar,TrainingItems,0,3,3,9,,,,,,,,,,,75,F,20,59.8311895615,"French, German, Spanish, Scottish Gaelic",American English,VSH_Exp2,2015_Nov_18_1718,
Recordings/puta.wav,no,p,t,u,yes,a,puta,Training,bilabial,TrainingItems,0,4,4,93,,,,,,,,,,,75,F,20,59.8311895615,"French, German, Spanish, Scottish Gaelic",American English,VSH_Exp2,2015_Nov_18_1718,
Recordings/fafa.wav,no,f,f,a,no,a,fafa,Training,bilabial,TrainingItems,0,5,5,35,,,,,,,,,,,75,F,20,59.8311895615,"French, German, Spanish, Scottish Gaelic",American English,VSH_Exp2,2015_Nov_18_1718,
Recordings/zuzi.wav,yes,z,z,u,no,i,zuzi,Training,alveolar,TrainingItems,0,6,6,84,,,,,,,,,,,75,F,20,59.8311895615,"French, German, Spanish, Scottish Gaelic",American English,VSH_Exp2,2015_Nov_18_1718,
Recordings/piti.wav,no,p,t,i,yes,i,piti,Training,bilabial,TrainingItems,0,7,7,77,,,,,,,,,,,75,F,20,59.8311895615,"French, German, Spanish, Scottish Gaelic",American English,VSH_Exp2,2015_Nov_18_1718,
Recordings/biba.wav,yes,b,b,i,yes,a,biba,Training,bilabial,TrainingItems,0,8,8,99,,,,,,,,,,,75,F,20,59.8311895615,"French, German, Spanish, Scottish Gaelic",American English,VSH_Exp2,2015_Nov_18_1718,
Recordings/fafi.wav,no,f,f,a,no,i,fafi,Training,bilabial,TrainingItems,0,9,9,1,,,,,,,,,,,75,F,20,59.8311895615,"French, German, Spanish, Scottish Gaelic",American English,VSH_Exp2,2015_Nov_18_1718,
Recordings/sisa.wav,no,s,s,i,no,a,sisa,Training,alveolar,TrainingItems,0,10,10,42,,,,,,,,,,,75,F,20,59.8311895615,"French, German, Spanish, Scottish Gaelic",American English,VSH_Exp2,2015_Nov_18_1718,
Recordings/sisu.wav,no,s,s,i,no,u,sisu,Training,alveolar,TrainingItems,0,11,11,51,,,,,,,,,,,75,F,20,59.8311895615,"French, German, Spanish, Scottish Gaelic",American English,VSH_Exp2,2015_Nov_18_1718,
Recordings/vuva.wav,yes,v,v,u,no,a,vuva,Training,bilabial,TrainingItems,0,12,12,69,,,,,,,,,,,75,F,20,59.8311895615,"French, German, Spanish, Scottish Gaelic",American English,VSH_Exp2,2015_Nov_18_1718,
Recordings/dadi.wav,yes,d,d,a,yes,i,dadi,Training,alveolar,TrainingItems,0,13,13,72,,,,,,,,,,,75,F,20,59.8311895615,"French, German, Spanish, Scottish Gaelic",American English,VSH_Exp2,2015_Nov_18_1718,
Recordings/sufi.wav,no,s,f,u,no,i,sufi,Training,alveolar,TrainingItems,0,14,14,30,,,,,,,,,,,75,F,20,59.8311895615,"French, German, Spanish, Scottish Gaelic",American English,VSH_Exp2,2015_Nov_18_1718,
Recordings/fasi.wav,no,f,s,a,no,i,fasi,Training,bilabial,TrainingItems,0,15,15,46,,,,,,,,,,,75,F,20,59.8311895615,"French, German, Spanish, Scottish Gaelic",American English,VSH_Exp2,2015_Nov_18_1718,
Recordings/safu.wav,no,s,f,a,no,u,safu,Training,alveolar,TrainingItems,0,16,16,68,,,,,,,,,,,75,F,20,59.8311895615,"French, German, Spanish, Scottish Gaelic",American English,VSH_Exp2,2015_Nov_18_1718,
Recordings/vuzu.wav,yes,v,z,u,no,u,vuzu,Training,bilabial,TrainingItems,0,17,17,82,,,,,,,,,,,75,F,20,59.8311895615,"French, German, Spanish, Scottish Gaelic",American English,VSH_Exp2,2015_Nov_18_1718,
Recordings/tipi.wav,no,t,p,i,yes,i,tipi,Training,alveolar,TrainingItems,0,18,18,90,,,,,,,,,,,75,F,20,59.8311895615,"French, German, Spanish, Scottish Gaelic",American English,VSH_Exp2,2015_Nov_18_1718,
Recordings/vuza.wav,yes,v,z,u,no,a,vuza,Training,bilabial,TrainingItems,0,19,19,98,,,,,,,,,,,75,F,20,59.8311895615,"French, German, Spanish, Scottish Gaelic",American English,VSH_Exp2,2015_Nov_18_1718,
Recordings/tatu.wav,no,t,t,a,yes,u,tatu,Training,alveolar,TrainingItems,0,20,20,16,,,,,,,,,,,75,F,20,59.8311895615,"French, German, Spanish, Scottish Gaelic",American English,VSH_Exp2,2015_Nov_18_1718,
Recordings/susu.wav,no,s,s,u,no,u,susu,Training,alveolar,TrainingItems,0,21,21,41,,,,,,,,,,,75,F,20,59.8311895615,"French, German, Spanish, Scottish Gaelic",American English,VSH_Exp2,2015_Nov_18_1718,
Recordings/papi.wav,no,p,p,a,yes,i,papi,Training,bilabial,TrainingItems,0,22,22,48,,,,,,,,,,,75,F,20,59.8311895615,"French, German, Spanish, Scottish Gaelic",American English,VSH_Exp2,2015_Nov_18_1718,
Recordings/papa.wav,no,p,p,a,yes,a,papa,Training,bilabial,TrainingItems,0,23,23,32,,,,,,,,,,,75,F,20,59.8311895615,"French, German, Spanish, Scottish Gaelic",American English,VSH_Exp2,2015_Nov_18_1718,
Recordings/zizu.wav,yes,z,z,i,no,u,zizu,Training,alveolar,TrainingItems,0,24,24,56,,,,,,,,,,,75,F,20,59.8311895615,"French, German, Spanish, Scottish Gaelic",American English,VSH_Exp2,2015_Nov_18_1718,
Recordings/pipa.wav,no,p,p,i,yes,a,pipa,Training,bilabial,TrainingItems,0,25,25,95,,,,,,,,,,,75,F,20,59.8311895615,"French, German, Spanish, Scottish Gaelic",American English,VSH_Exp2,2015_Nov_18_1718,
Recordings/tutu.wav,no,t,t,u,yes,u,tutu,Training,alveolar,TrainingItems,0,26,26,11,,,,,,,,,,,75,F,20,59.8311895615,"French, German, Spanish, Scottish Gaelic",American English,VSH_Exp2,2015_Nov_18_1718,
Recordings/babu.wav,yes,b,b,a,yes,u,babu,Training,bilabial,TrainingItems,0,27,27,92,,,,,,,,,,,75,F,20,59.8311895615,"French, German, Spanish, Scottish Gaelic",American English,VSH_Exp2,2015_Nov_18_1718,
Recordings/sifa.wav,no,s,f,i,no,a,sifa,Training,alveolar,TrainingItems,0,28,28,71,,,,,,,,,,,75,F,20,59.8311895615,"French, German, Spanish, Scottish Gaelic",American English,VSH_Exp2,2015_Nov_18_1718,
Recordings/pata.wav,no,p,t,a,yes,a,pata,Training,bilabial,TrainingItems,0,29,29,78,,,,,,,,,,,75,F,20,59.8311895615,"French, German, Spanish, Scottish Gaelic",American English,VSH_Exp2,2015_Nov_18_1718,
Recordings/zuvu.wav,yes,z,v,u,no,u,zuvu,Training,alveolar,TrainingItems,0,30,30,13,,,,,,,,,,,75,F,20,59.8311895615,"French, German, Spanish, Scottish Gaelic",American English,VSH_Exp2,2015_Nov_18_1718,
Recordings/pati.wav,no,p,t,a,yes,i,pati,Training,bilabial,TrainingItems,0,31,31,80,,,,,,,,,,,75,F,20,59.8311895615,"French, German, Spanish, Scottish Gaelic",American English,VSH_Exp2,2015_Nov_18_1718,
Recordings/putu.wav,no,p,t,u,yes,u,putu,Training,bilabial,TrainingItems,0,32,32,76,,,,,,,,,,,75,F,20,59.8311895615,"French, German, Spanish, Scottish Gaelic",American English,VSH_Exp2,2015_Nov_18_1718,
Recordings/fifu.wav,no,f,f,i,no,u,fifu,Training,bilabial,TrainingItems,0,33,33,74,,,,,,,,,,,75,F,20,59.8311895615,"French, German, Spanish, Scottish Gaelic",American English,VSH_Exp2,2015_Nov_18_1718,
Recordings/dadu.wav,yes,d,d,a,yes,u,dadu,Training,alveolar,TrainingItems,0,34,34,85,,,,,,,,,,,75,F,20,59.8311895615,"French, German, Spanish, Scottish Gaelic",American English,VSH_Exp2,2015_Nov_18_1718,
Recordings/zuvi.wav,yes,z,v,u,no,i,zuvi,Training,alveolar,TrainingItems,0,35,35,61,,,,,,,,,,,75,F,20,59.8311895615,"French, German, Spanish, Scottish Gaelic",American English,VSH_Exp2,2015_Nov_18_1718,
Recordings/sufu.wav,no,s,f,u,no,u,sufu,Training,alveolar,TrainingItems,0,36,36,6,,,,,,,,,,,75,F,20,59.8311895615,"French, German, Spanish, Scottish Gaelic",American English,VSH_Exp2,2015_Nov_18_1718,
Recordings/tita.wav,no,t,t,i,yes,a,tita,Training,alveolar,TrainingItems,0,37,37,22,,,,,,,,,,,75,F,20,59.8311895615,"French, German, Spanish, Scottish Gaelic",American English,VSH_Exp2,2015_Nov_18_1718,
Recordings/baba.wav,yes,b,b,a,yes,a,baba,Training,bilabial,TrainingItems,0,38,38,31,,,,,,,,,,,75,F,20,59.8311895615,"French, German, Spanish, Scottish Gaelic",American English,VSH_Exp2,2015_Nov_18_1718,
Recordings/viva.wav,yes,v,v,i,no,a,viva,Training,bilabial,TrainingItems,0,39,39,70,,,,,,,,,,,75,F,20,59.8311895615,"French, German, Spanish, Scottish Gaelic",American English,VSH_Exp2,2015_Nov_18_1718,
Recordings/tipa.wav,no,t,p,i,yes,a,tipa,Training,alveolar,TrainingItems,0,40,40,5,,,,,,,,,,,75,F,20,59.8311895615,"French, German, Spanish, Scottish Gaelic",American English,VSH_Exp2,2015_Nov_18_1718,
Recordings/ziva.wav,yes,z,v,i,no,a,ziva,Training,alveolar,TrainingItems,0,41,41,38,,,,,,,,,,,75,F,20,59.8311895615,"French, German, Spanish, Scottish Gaelic",American English,VSH_Exp2,2015_Nov_18_1718,
Recordings/tupu.wav,no,t,p,u,yes,u,tupu,Training,alveolar,TrainingItems,0,42,42,24,,,,,,,,,,,75,F,20,59.8311895615,"French, German, Spanish, Scottish Gaelic",American English,VSH_Exp2,2015_Nov_18_1718,
Recordings/safi.wav,no,s,f,a,no,i,safi,Training,alveolar,TrainingItems,0,43,43,18,,,,,,,,,,,75,F,20,59.8311895615,"French, German, Spanish, Scottish Gaelic",American English,VSH_Exp2,2015_Nov_18_1718,
Recordings/zivi.wav,yes,z,v,i,no,i,zivi,Training,alveolar,TrainingItems,0,44,44,97,,,,,,,,,,,75,F,20,59.8311895615,"French, German, Spanish, Scottish Gaelic",American English,VSH_Exp2,2015_Nov_18_1718,
Recordings/dudi.wav,yes,d,d,u,yes,i,dudi,Training,alveolar,TrainingItems,0,45,45,19,,,,,,,,,,,75,F,20,59.8311895615,"French, German, Spanish, Scottish Gaelic",American English,VSH_Exp2,2015_Nov_18_1718,
Recordings/bubu.wav,yes,b,b,u,yes,u,bubu,Training,bilabial,TrainingItems,0,46,46,64,,,,,,,,,,,75,F,20,59.8311895615,"French, German, Spanish, Scottish Gaelic",American English,VSH_Exp2,2015_Nov_18_1718,
Recordings/vuzi.wav,yes,v,z,u,no,i,vuzi,Training,bilabial,TrainingItems,0,47,47,96,,,,,,,,,,,75,F,20,59.8311895615,"French, German, Spanish, Scottish Gaelic",American English,VSH_Exp2,2015_Nov_18_1718,
Recordings/viza.wav,yes,v,z,i,no,a,viza,Training,bilabial,TrainingItems,0,48,48,73,,,,,,,,,,,75,F,20,59.8311895615,"French, German, Spanish, Scottish Gaelic",American English,VSH_Exp2,2015_Nov_18_1718,
Recordings/fasa.wav,no,f,s,a,no,a,fasa,Training,bilabial,TrainingItems,0,49,49,67,,,,,,,,,,,75,F,20,59.8311895615,"French, German, Spanish, Scottish Gaelic",American English,VSH_Exp2,2015_Nov_18_1718,
Recordings/tuta.wav,no,t,t,u,yes,a,tuta,Training,alveolar,TrainingItems,0,50,50,27,,,,,,,,,,,75,F,20,59.8311895615,"French, German, Spanish, Scottish Gaelic",American English,VSH_Exp2,2015_Nov_18_1718,
Recordings/fufa.wav,no,f,f,u,no,a,fufa,Training,bilabial,TrainingItems,0,51,51,37,,,,,,,,,,,75,F,20,59.8311895615,"French, German, Spanish, Scottish Gaelic",American English,VSH_Exp2,2015_Nov_18_1718,
Recordings/didu.wav,yes,d,d,i,yes,u,didu,Training,alveolar,TrainingItems,0,52,52,59,,,,,,,,,,,75,F,20,59.8311895615,"French, German, Spanish, Scottish Gaelic",American English,VSH_Exp2,2015_Nov_18_1718,
Recordings/vaza.wav,yes,v,z,a,no,a,vaza,Training,bilabial,TrainingItems,0,53,53,50,,,,,,,,,,,75,F,20,59.8311895615,"French, German, Spanish, Scottish Gaelic",American English,VSH_Exp2,2015_Nov_18_1718,
Recordings/fusa.wav,no,f,s,u,no,a,fusa,Training,bilabial,TrainingItems,0,54,54,39,,,,,,,,,,,75,F,20,59.8311895615,"French, German, Spanish, Scottish Gaelic",American English,VSH_Exp2,2015_Nov_18_1718,
Recordings/puti.wav,no,p,t,u,yes,i,puti,Training,bilabial,TrainingItems,0,55,55,62,,,,,,,,,,,75,F,20,59.8311895615,"French, German, Spanish, Scottish Gaelic",American English,VSH_Exp2,2015_Nov_18_1718,
Recordings/vuvu.wav,yes,v,v,u,no,u,vuvu,Training,bilabial,TrainingItems,0,56,56,66,,,,,,,,,,,75,F,20,59.8311895615,"French, German, Spanish, Scottish Gaelic",American English,VSH_Exp2,2015_Nov_18_1718,
Recordings/fisi.wav,no,f,s,i,no,i,fisi,Training,bilabial,TrainingItems,0,57,57,20,,,,,,,,,,,75,F,20,59.8311895615,"French, German, Spanish, Scottish Gaelic",American English,VSH_Exp2,2015_Nov_18_1718,
Recordings/titu.wav,no,t,t,i,yes,u,titu,Training,alveolar,TrainingItems,0,58,58,2,,,,,,,,,,,75,F,20,59.8311895615,"French, German, Spanish, Scottish Gaelic",American English,VSH_Exp2,2015_Nov_18_1718,
Recordings/tipu.wav,no,t,p,i,yes,u,tipu,Training,alveolar,TrainingItems,0,59,59,4,,,,,,,,,,,75,F,20,59.8311895615,"French, German, Spanish, Scottish Gaelic",American English,VSH_Exp2,2015_Nov_18_1718,
Recordings/tapi.wav,no,t,p,a,yes,i,tapi,Training,alveolar,TrainingItems,0,60,60,34,,,,,,,,,,,75,F,20,59.8311895615,"French, German, Spanish, Scottish Gaelic",American English,VSH_Exp2,2015_Nov_18_1718,
Recordings/tupa.wav,no,t,p,u,yes,a,tupa,Training,alveolar,TrainingItems,0,61,61,29,,,,,,,,,,,75,F,20,59.8311895615,"French, German, Spanish, Scottish Gaelic",American English,VSH_Exp2,2015_Nov_18_1718,
Recordings/fifi.wav,no,f,f,i,no,i,fifi,Training,bilabial,TrainingItems,0,62,62,86,,,,,,,,,,,75,F,20,59.8311895615,"French, German, Spanish, Scottish Gaelic",American English,VSH_Exp2,2015_Nov_18_1718,
Recordings/tuti.wav,no,t,t,u,yes,i,tuti,Training,alveolar,TrainingItems,0,63,63,36,,,,,,,,,,,75,F,20,59.8311895615,"French, German, Spanish, Scottish Gaelic",American English,VSH_Exp2,2015_Nov_18_1718,
Recordings/sifi.wav,no,s,f,i,no,i,sifi,Training,alveolar,TrainingItems,0,64,64,12,,,,,,,,,,,75,F,20,59.8311895615,"French, German, Spanish, Scottish Gaelic",American English,VSH_Exp2,2015_Nov_18_1718,
Recordings/zazu.wav,yes,z,z,a,no,u,zazu,Training,alveolar,TrainingItems,0,65,65,79,,,,,,,,,,,75,F,20,59.8311895615,"French, German, Spanish, Scottish Gaelic",American English,VSH_Exp2,2015_Nov_18_1718,
Recordings/zavi.wav,yes,z,v,a,no,i,zavi,Training,alveolar,TrainingItems,0,66,66,55,,,,,,,,,,,75,F,20,59.8311895615,"French, German, Spanish, Scottish Gaelic",American English,VSH_Exp2,2015_Nov_18_1718,
Recordings/zuzu.wav,yes,z,z,u,no,u,zuzu,Training,alveolar,TrainingItems,0,67,67,45,,,,,,,,,,,75,F,20,59.8311895615,"French, German, Spanish, Scottish Gaelic",American English,VSH_Exp2,2015_Nov_18_1718,
Recordings/tapa.wav,no,t,p,a,yes,a,tapa,Training,alveolar,TrainingItems,0,68,68,33,,,,,,,,,,,75,F,20,59.8311895615,"French, German, Spanish, Scottish Gaelic",American English,VSH_Exp2,2015_Nov_18_1718,
Recordings/vavi.wav,yes,v,v,a,no,i,vavi,Training,bilabial,TrainingItems,0,69,69,57,,,,,,,,,,,75,F,20,59.8311895615,"French, German, Spanish, Scottish Gaelic",American English,VSH_Exp2,2015_Nov_18_1718,
Recordings/sasi.wav,no,s,s,a,no,i,sasi,Training,alveolar,TrainingItems,0,70,70,65,,,,,,,,,,,75,F,20,59.8311895615,"French, German, Spanish, Scottish Gaelic",American English,VSH_Exp2,2015_Nov_18_1718,
Recordings/zizi.wav,yes,z,z,i,no,i,zizi,Training,alveolar,TrainingItems,0,71,71,25,,,,,,,,,,,75,F,20,59.8311895615,"French, German, Spanish, Scottish Gaelic",American English,VSH_Exp2,2015_Nov_18_1718,
Recordings/zaza.wav,yes,z,z,a,no,a,zaza,Training,alveolar,TrainingItems,0,72,72,53,,,,,,,,,,,75,F,20,59.8311895615,"French, German, Spanish, Scottish Gaelic",American English,VSH_Exp2,2015_Nov_18_1718,
Recordings/sasu.wav,no,s,s,a,no,u,sasu,Training,alveolar,TrainingItems,0,73,73,54,,,,,,,,,,,75,F,20,59.8311895615,"French, German, Spanish, Scottish Gaelic",American English,VSH_Exp2,2015_Nov_18_1718,
Recordings/zuza.wav,yes,z,z,u,no,a,zuza,Training,alveolar,TrainingItems,0,74,74,63,,,,,,,,,,,75,F,20,59.8311895615,"French, German, Spanish, Scottish Gaelic",American English,VSH_Exp2,2015_Nov_18_1718,
Recordings/zuva.wav,yes,z,v,u,no,a,zuva,Training,alveolar,TrainingItems,0,75,75,14,,,,,,,,,,,75,F,20,59.8311895615,"French, German, Spanish, Scottish Gaelic",American English,VSH_Exp2,2015_Nov_18_1718,
Recordings/sufa.wav,no,s,f,u,no,a,sufa,Training,alveolar,TrainingItems,0,76,76,47,,,,,,,,,,,75,F,20,59.8311895615,"French, German, Spanish, Scottish Gaelic",American English,VSH_Exp2,2015_Nov_18_1718,
Recordings/titi.wav,no,t,t,i,yes,i,titi,Training,alveolar,TrainingItems,0,77,77,87,,,,,,,,,,,75,F,20,59.8311895615,"French, German, Spanish, Scottish Gaelic",American English,VSH_Exp2,2015_Nov_18_1718,
Recordings/tupi.wav,no,t,p,u,yes,i,tupi,Training,alveolar,TrainingItems,0,78,78,49,,,,,,,,,,,75,F,20,59.8311895615,"French, German, Spanish, Scottish Gaelic",American English,VSH_Exp2,2015_Nov_18_1718,
Recordings/vava.wav,yes,v,v,a,no,a,vava,Training,bilabial,TrainingItems,0,79,79,3,,,,,,,,,,,75,F,20,59.8311895615,"French, German, Spanish, Scottish Gaelic",American English,VSH_Exp2,2015_Nov_18_1718,
Recordings/zazi.wav,yes,z,z,a,no,i,zazi,Training,alveolar,TrainingItems,0,80,80,43,,,,,,,,,,,75,F,20,59.8311895615,"French, German, Spanish, Scottish Gaelic",American English,VSH_Exp2,2015_Nov_18_1718,
Recordings/vazi.wav,yes,v,z,a,no,i,vazi,Training,bilabial,TrainingItems,0,81,81,94,,,,,,,,,,,75,F,20,59.8311895615,"French, German, Spanish, Scottish Gaelic",American English,VSH_Exp2,2015_Nov_18_1718,
Recordings/sifu.wav,no,s,f,i,no,u,sifu,Training,alveolar,TrainingItems,0,82,82,17,,,,,,,,,,,75,F,20,59.8311895615,"French, German, Spanish, Scottish Gaelic",American English,VSH_Exp2,2015_Nov_18_1718,
Recordings/vizi.wav,yes,v,z,i,no,i,vizi,Training,bilabial,TrainingItems,0,83,83,81,,,,,,,,,,,75,F,20,59.8311895615,"French, German, Spanish, Scottish Gaelic",American English,VSH_Exp2,2015_Nov_18_1718,
Recordings/pita.wav,no,p,t,i,yes,a,pita,Training,bilabial,TrainingItems,0,84,84,23,,,,,,,,,,,75,F,20,59.8311895615,"French, German, Spanish, Scottish Gaelic",American English,VSH_Exp2,2015_Nov_18_1718,
Recordings/dada.wav,yes,d,d,a,yes,a,dada,Training,alveolar,TrainingItems,0,85,85,44,,,,,,,,,,,75,F,20,59.8311895615,"French, German, Spanish, Scottish Gaelic",American English,VSH_Exp2,2015_Nov_18_1718,
Recordings/duda.wav,yes,d,d,u,yes,a,duda,Training,alveolar,TrainingItems,0,86,86,88,,,,,,,,,,,75,F,20,59.8311895615,"French, German, Spanish, Scottish Gaelic",American English,VSH_Exp2,2015_Nov_18_1718,
Recordings/fusi.wav,no,f,s,u,no,i,fusi,Training,bilabial,TrainingItems,0,87,87,60,,,,,,,,,,,75,F,20,59.8311895615,"French, German, Spanish, Scottish Gaelic",American English,VSH_Exp2,2015_Nov_18_1718,
Recordings/vazu.wav,yes,v,z,a,no,u,vazu,Training,bilabial,TrainingItems,0,88,88,10,,,,,,,,,,,75,F,20,59.8311895615,"French, German, Spanish, Scottish Gaelic",American English,VSH_Exp2,2015_Nov_18_1718,
Recordings/safa.wav,no,s,f,a,no,a,safa,Training,alveolar,TrainingItems,0,89,89,89,,,,,,,,,,,75,F,20,59.8311895615,"French, German, Spanish, Scottish Gaelic",American English,VSH_Exp2,2015_Nov_18_1718,
Recordings/fufi.wav,no,f,f,u,no,i,fufi,Training,bilabial,TrainingItems,0,90,90,83,,,,,,,,,,,75,F,20,59.8311895615,"French, German, Spanish, Scottish Gaelic",American English,VSH_Exp2,2015_Nov_18_1718,
Recordings/vavu.wav,yes,v,v,a,no,u,vavu,Training,bilabial,TrainingItems,0,91,91,52,,,,,,,,,,,75,F,20,59.8311895615,"French, German, Spanish, Scottish Gaelic",American English,VSH_Exp2,2015_Nov_18_1718,
Recordings/pitu.wav,no,p,t,i,yes,u,pitu,Training,bilabial,TrainingItems,0,92,92,7,,,,,,,,,,,75,F,20,59.8311895615,"French, German, Spanish, Scottish Gaelic",American English,VSH_Exp2,2015_Nov_18_1718,
Recordings/vivu.wav,yes,v,v,i,no,u,vivu,Training,bilabial,TrainingItems,0,93,93,40,,,,,,,,,,,75,F,20,59.8311895615,"French, German, Spanish, Scottish Gaelic",American English,VSH_Exp2,2015_Nov_18_1718,
Recordings/tata.wav,no,t,t,a,yes,a,tata,Training,alveolar,TrainingItems,0,94,94,15,,,,,,,,,,,75,F,20,59.8311895615,"French, German, Spanish, Scottish Gaelic",American English,VSH_Exp2,2015_Nov_18_1718,
Recordings/fasu.wav,no,f,s,a,no,u,fasu,Training,bilabial,TrainingItems,0,95,95,75,,,,,,,,,,,75,F,20,59.8311895615,"French, German, Spanish, Scottish Gaelic",American English,VSH_Exp2,2015_Nov_18_1718,
Recordings/tati.wav,no,t,t,a,yes,i,tati,Training,alveolar,TrainingItems,0,96,96,58,,,,,,,,,,,75,F,20,59.8311895615,"French, German, Spanish, Scottish Gaelic",American English,VSH_Exp2,2015_Nov_18_1718,
Recordings/fafu.wav,no,f,f,a,no,u,fafu,Training,bilabial,TrainingItems,0,97,97,28,,,,,,,,,,,75,F,20,59.8311895615,"French, German, Spanish, Scottish Gaelic",American English,VSH_Exp2,2015_Nov_18_1718,
Recordings/pupa.wav,no,p,p,u,yes,a,pupa,Training,bilabial,TrainingItems,0,98,98,26,,,,,,,,,,,75,F,20,59.8311895615,"French, German, Spanish, Scottish Gaelic",American English,VSH_Exp2,2015_Nov_18_1718,
Recordings/susi.wav,no,s,s,u,no,i,susi,Training,alveolar,TrainingItems,0,99,99,91,,,,,,,,,,,75,F,20,59.8311895615,"French, German, Spanish, Scottish Gaelic",American English,VSH_Exp2,2015_Nov_18_1718,
Recordings/fusa.wav,no,f,s,u,no,a,fusa,Training,bilabial,TrainingItems,1,0,100,39,,,,,,,,,,,75,F,20,59.8311895615,"French, German, Spanish, Scottish Gaelic",American English,VSH_Exp2,2015_Nov_18_1718,
Recordings/papa.wav,no,p,p,a,yes,a,papa,Training,bilabial,TrainingItems,1,1,101,32,,,,,,,,,,,75,F,20,59.8311895615,"French, German, Spanish, Scottish Gaelic",American English,VSH_Exp2,2015_Nov_18_1718,
Recordings/viza.wav,yes,v,z,i,no,a,viza,Training,bilabial,TrainingItems,1,2,102,73,,,,,,,,,,,75,F,20,59.8311895615,"French, German, Spanish, Scottish Gaelic",American English,VSH_Exp2,2015_Nov_18_1718,
Recordings/zuva.wav,yes,z,v,u,no,a,zuva,Training,alveolar,TrainingItems,1,3,103,14,,,,,,,,,,,75,F,20,59.8311895615,"French, German, Spanish, Scottish Gaelic",American English,VSH_Exp2,2015_Nov_18_1718,
Recordings/tipa.wav,no,t,p,i,yes,a,tipa,Training,alveolar,TrainingItems,1,4,104,5,,,,,,,,,,,75,F,20,59.8311895615,"French, German, Spanish, Scottish Gaelic",American English,VSH_Exp2,2015_Nov_18_1718,
Recordings/fifu.wav,no,f,f,i,no,u,fifu,Training,bilabial,TrainingItems,1,5,105,74,,,,,,,,,,,75,F,20,59.8311895615,"French, German, Spanish, Scottish Gaelic",American English,VSH_Exp2,2015_Nov_18_1718,
Recordings/vuza.wav,yes,v,z,u,no,a,vuza,Training,bilabial,TrainingItems,1,6,106,98,,,,,,,,,,,75,F,20,59.8311895615,"French, German, Spanish, Scottish Gaelic",American English,VSH_Exp2,2015_Nov_18_1718,
Recordings/tipu.wav,no,t,p,i,yes,u,tipu,Training,alveolar,TrainingItems,1,7,107,4,,,,,,,,,,,75,F,20,59.8311895615,"French, German, Spanish, Scottish Gaelic",American English,VSH_Exp2,2015_Nov_18_1718,
Recordings/didi.wav,yes,d,d,i,yes,i,didi,Training,alveolar,TrainingItems,1,8,108,0,,,,,,,,,,,75,F,20,59.8311895615,"French, German, Spanish, Scottish Gaelic",American English,VSH_Exp2,2015_Nov_18_1718,
Recordings/vuva.wav,yes,v,v,u,no,a,vuva,Training,bilabial,TrainingItems,1,9,109,69,,,,,,,,,,,75,F,20,59.8311895615,"French, German, Spanish, Scottish Gaelic",American English,VSH_Exp2,2015_Nov_18_1718,
Recordings/fasa.wav,no,f,s,a,no,a,fasa,Training,bilabial,TrainingItems,1,10,110,67,,,,,,,,,,,75,F,20,59.8311895615,"French, German, Spanish, Scottish Gaelic",American English,VSH_Exp2,2015_Nov_18_1718,
Recordings/dadi.wav,yes,d,d,a,yes,i,dadi,Training,alveolar,TrainingItems,1,11,111,72,,,,,,,,,,,75,F,20,59.8311895615,"French, German, Spanish, Scottish Gaelic",American English,VSH_Exp2,2015_Nov_18_1718,
Recordings/vazu.wav,yes,v,z,a,no,u,vazu,Training,bilabial,TrainingItems,1,12,112,10,,,,,,,,,,,75,F,20,59.8311895615,"French, German, Spanish, Scottish Gaelic",American English,VSH_Exp2,2015_Nov_18_1718,
Recordings/didu.wav,yes,d,d,i,yes,u,didu,Training,alveolar,TrainingItems,1,13,113,59,,,,,,,,,,,75,F,20,59.8311895615,"French, German, Spanish, Scottish Gaelic",American English,VSH_Exp2,2015_Nov_18_1718,
Recordings/safi.wav,no,s,f,a,no,i,safi,Training,alveolar,TrainingItems,1,14,114,18,,,,,,,,,,,75,F,20,59.8311895615,"French, German, Spanish, Scottish Gaelic",American English,VSH_Exp2,2015_Nov_18_1718,
Recordings/puti.wav,no,p,t,u,yes,i,puti,Training,bilabial,TrainingItems,1,15,115,62,,,,,,,,,,,75,F,20,59.8311895615,"French, German, Spanish, Scottish Gaelic",American English,VSH_Exp2,2015_Nov_18_1718,
Recordings/piti.wav,no,p,t,i,yes,i,piti,Training,bilabial,TrainingItems,1,16,116,77,,,,,,,,,,,75,F,20,59.8311895615,"French, German, Spanish, Scottish Gaelic",American English,VSH_Exp2,2015_Nov_18_1718,
Recordings/papi.wav,no,p,p,a,yes,i,papi,Training,bilabial,TrainingItems,1,17,117,48,,,,,,,,,,,75,F,20,59.8311895615,"French, German, Spanish, Scottish Gaelic",American English,VSH_Exp2,2015_Nov_18_1718,
Recordings/babu.wav,yes,b,b,a,yes,u,babu,Training,bilabial,TrainingItems,1,18,118,92,,,,,,,,,,,75,F,20,59.8311895615,"French, German, Spanish, Scottish Gaelic",American English,VSH_Exp2,2015_Nov_18_1718,
Recordings/sufa.wav,no,s,f,u,no,a,sufa,Training,alveolar,TrainingItems,1,19,119,47,,,,,,,,,,,75,F,20,59.8311895615,"French, German, Spanish, Scottish Gaelic",American English,VSH_Exp2,2015_Nov_18_1718,
Recordings/pita.wav,no,p,t,i,yes,a,pita,Training,bilabial,TrainingItems,1,20,120,23,,,,,,,,,,,75,F,20,59.8311895615,"French, German, Spanish, Scottish Gaelic",American English,VSH_Exp2,2015_Nov_18_1718,
Recordings/fafa.wav,no,f,f,a,no,a,fafa,Training,bilabial,TrainingItems,1,21,121,35,,,,,,,,,,,75,F,20,59.8311895615,"French, German, Spanish, Scottish Gaelic",American English,VSH_Exp2,2015_Nov_18_1718,
Recordings/zuza.wav,yes,z,z,u,no,a,zuza,Training,alveolar,TrainingItems,1,22,122,63,,,,,,,,,,,75,F,20,59.8311895615,"French, German, Spanish, Scottish Gaelic",American English,VSH_Exp2,2015_Nov_18_1718,
Recordings/zuvu.wav,yes,z,v,u,no,u,zuvu,Training,alveolar,TrainingItems,1,23,123,13,,,,,,,,,,,75,F,20,59.8311895615,"French, German, Spanish, Scottish Gaelic",American English,VSH_Exp2,2015_Nov_18_1718,
Recordings/duda.wav,yes,d,d,u,yes,a,duda,Training,alveolar,TrainingItems,1,24,124,88,,,,,,,,,,,75,F,20,59.8311895615,"French, German, Spanish, Scottish Gaelic",American English,VSH_Exp2,2015_Nov_18_1718,
Recordings/vuvu.wav,yes,v,v,u,no,u,vuvu,Training,bilabial,TrainingItems,1,25,125,66,,,,,,,,,,,75,F,20,59.8311895615,"French, German, Spanish, Scottish Gaelic",American English,VSH_Exp2,2015_Nov_18_1718,
Recordings/fusi.wav,no,f,s,u,no,i,fusi,Training,bilabial,TrainingItems,1,26,126,60,,,,,,,,,,,75,F,20,59.8311895615,"French, German, Spanish, Scottish Gaelic",American English,VSH_Exp2,2015_Nov_18_1718,
Recordings/baba.wav,yes,b,b,a,yes,a,baba,Training,bilabial,TrainingItems,1,27,127,31,,,,,,,,,,,75,F,20,59.8311895615,"French, German, Spanish, Scottish Gaelic",American English,VSH_Exp2,2015_Nov_18_1718,
Recordings/tipi.wav,no,t,p,i,yes,i,tipi,Training,alveolar,TrainingItems,1,28,128,90,,,,,,,,,,,75,F,20,59.8311895615,"French, German, Spanish, Scottish Gaelic",American English,VSH_Exp2,2015_Nov_18_1718,
Recordings/sifi.wav,no,s,f,i,no,i,sifi,Training,alveolar,TrainingItems,1,29,129,12,,,,,,,,,,,75,F,20,59.8311895615,"French, German, Spanish, Scottish Gaelic",American English,VSH_Exp2,2015_Nov_18_1718,
Recordings/tata.wav,no,t,t,a,yes,a,tata,Training,alveolar,TrainingItems,1,30,130,15,,,,,,,,,,,75,F,20,59.8311895615,"French, German, Spanish, Scottish Gaelic",American English,VSH_Exp2,2015_Nov_18_1718,
Recordings/dudi.wav,yes,d,d,u,yes,i,dudi,Training,alveolar,TrainingItems,1,31,131,19,,,,,,,,,,,75,F,20,59.8311895615,"French, German, Spanish, Scottish Gaelic",American English,VSH_Exp2,2015_Nov_18_1718,
Recordings/ziza.wav,yes,z,z,i,no,a,ziza,Training,alveolar,TrainingItems,1,32,132,9,,,,,,,,,,,75,F,20,59.8311895615,"French, German, Spanish, Scottish Gaelic",American English,VSH_Exp2,2015_Nov_18_1718,
Recordings/safa.wav,no,s,f,a,no,a,safa,Training,alveolar,TrainingItems,1,33,133,89,,,,,,,,,,,75,F,20,59.8311895615,"French, German, Spanish, Scottish Gaelic",American English,VSH_Exp2,2015_Nov_18_1718,
Recordings/tatu.wav,no,t,t,a,yes,u,tatu,Training,alveolar,TrainingItems,1,34,134,16,,,,,,,,,,,75,F,20,59.8311895615,"French, German, Spanish, Scottish Gaelic",American English,VSH_Exp2,2015_Nov_18_1718,
Recordings/sifu.wav,no,s,f,i,no,u,sifu,Training,alveolar,TrainingItems,1,35,135,17,,,,,,,,,,,75,F,20,59.8311895615,"French, German, Spanish, Scottish Gaelic",American English,VSH_Exp2,2015_Nov_18_1718,
Recordings/fasi.wav,no,f,s,a,no,i,fasi,Training,bilabial,TrainingItems,1,36,136,46,,,,,,,,,,,75,F,20,59.8311895615,"French, German, Spanish, Scottish Gaelic",American English,VSH_Exp2,2015_Nov_18_1718,
Recordings/vavi.wav,yes,v,v,a,no,i,vavi,Training,bilabial,TrainingItems,1,37,137,57,,,,,,,,,,,75,F,20,59.8311895615,"French, German, Spanish, Scottish Gaelic",American English,VSH_Exp2,2015_Nov_18_1718,
Recordings/zizi.wav,yes,z,z,i,no,i,zizi,Training,alveolar,TrainingItems,1,38,138,25,,,,,,,,,,,75,F,20,59.8311895615,"French, German, Spanish, Scottish Gaelic",American English,VSH_Exp2,2015_Nov_18_1718,
Recordings/pitu.wav,no,p,t,i,yes,u,pitu,Training,bilabial,TrainingItems,1,39,139,7,,,,,,,,,,,75,F,20,59.8311895615,"French, German, Spanish, Scottish Gaelic",American English,VSH_Exp2,2015_Nov_18_1718,
Recordings/fasu.wav,no,f,s,a,no,u,fasu,Training,bilabial,TrainingItems,1,40,140,75,,,,,,,,,,,75,F,20,59.8311895615,"French, German, Spanish, Scottish Gaelic",American English,VSH_Exp2,2015_Nov_18_1718,
Recordings/fafi.wav,no,f,f,a,no,i,fafi,Training,bilabial,TrainingItems,1,41,141,1,,,,,,,,,,,75,F,20,59.8311895615,"French, German, Spanish, Scottish Gaelic",American English,VSH_Exp2,2015_Nov_18_1718,
Recordings/putu.wav,no,p,t,u,yes,u,putu,Training,bilabial,TrainingItems,1,42,142,76,,,,,,,,,,,75,F,20,59.8311895615,"French, German, Spanish, Scottish Gaelic",American English,VSH_Exp2,2015_Nov_18_1718,
Recordings/fisi.wav,no,f,s,i,no,i,fisi,Training,bilabial,TrainingItems,1,43,143,20,,,,,,,,,,,75,F,20,59.8311895615,"French, German, Spanish, Scottish Gaelic",American English,VSH_Exp2,2015_Nov_18_1718,
Recordings/tuti.wav,no,t,t,u,yes,i,tuti,Training,alveolar,TrainingItems,1,44,144,36,,,,,,,,,,,75,F,20,59.8311895615,"French, German, Spanish, Scottish Gaelic",American English,VSH_Exp2,2015_Nov_18_1718,
Recordings/tapa.wav,no,t,p,a,yes,a,tapa,Training,alveolar,TrainingItems,1,45,145,33,,,,,,,,,,,75,F,20,59.8311895615,"French, German, Spanish, Scottish Gaelic",American English,VSH_Exp2,2015_Nov_18_1718,
Recordings/zizu.wav,yes,z,z,i,no,u,zizu,Training,alveolar,TrainingItems,1,46,146,56,,,,,,,,,,,75,F,20,59.8311895615,"French, German, Spanish, Scottish Gaelic",American English,VSH_Exp2,2015_Nov_18_1718,
Recordings/zuzi.wav,yes,z,z,u,no,i,zuzi,Training,alveolar,TrainingItems,1,47,147,84,,,,,,,,,,,75,F,20,59.8311895615,"French, German, Spanish, Scottish Gaelic",American English,VSH_Exp2,2015_Nov_18_1718,
Recordings/zuzu.wav,yes,z,z,u,no,u,zuzu,Training,alveolar,TrainingItems,1,48,148,45,,,,,,,,,,,75,F,20,59.8311895615,"French, German, Spanish, Scottish Gaelic",American English,VSH_Exp2,2015_Nov_18_1718,
Recordings/fufa.wav,no,f,f,u,no,a,fufa,Training,bilabial,TrainingItems,1,49,149,37,,,,,,,,,,,75,F,20,59.8311895615,"French, German, Spanish, Scottish Gaelic",American English,VSH_Exp2,2015_Nov_18_1718,
Recordings/vuzi.wav,yes,v,z,u,no,i,vuzi,Training,bilabial,TrainingItems,1,50,150,96,,,,,,,,,,,75,F,20,59.8311895615,"French, German, Spanish, Scottish Gaelic",American English,VSH_Exp2,2015_Nov_18_1718,
Recordings/pati.wav,no,p,t,a,yes,i,pati,Training,bilabial,TrainingItems,1,51,151,80,,,,,,,,,,,75,F,20,59.8311895615,"French, German, Spanish, Scottish Gaelic",American English,VSH_Exp2,2015_Nov_18_1718,
Recordings/zaza.wav,yes,z,z,a,no,a,zaza,Training,alveolar,TrainingItems,1,52,152,53,,,,,,,,,,,75,F,20,59.8311895615,"French, German, Spanish, Scottish Gaelic",American English,VSH_Exp2,2015_Nov_18_1718,
Recordings/tita.wav,no,t,t,i,yes,a,tita,Training,alveolar,TrainingItems,1,53,153,22,,,,,,,,,,,75,F,20,59.8311895615,"French, German, Spanish, Scottish Gaelic",American English,VSH_Exp2,2015_Nov_18_1718,
Recordings/pata.wav,no,p,t,a,yes,a,pata,Training,bilabial,TrainingItems,1,54,154,78,,,,,,,,,,,75,F,20,59.8311895615,"French, German, Spanish, Scottish Gaelic",American English,VSH_Exp2,2015_Nov_18_1718,
Recordings/susi.wav,no,s,s,u,no,i,susi,Training,alveolar,TrainingItems,1,55,155,91,,,,,,,,,,,75,F,20,59.8311895615,"French, German, Spanish, Scottish Gaelic",American English,VSH_Exp2,2015_Nov_18_1718,
Recordings/vuzu.wav,yes,v,z,u,no,u,vuzu,Training,bilabial,TrainingItems,1,56,156,82,,,,,,,,,,,75,F,20,59.8311895615,"French, German, Spanish, Scottish Gaelic",American English,VSH_Exp2,2015_Nov_18_1718,
Recordings/titi.wav,no,t,t,i,yes,i,titi,Training,alveolar,TrainingItems,1,57,157,87,,,,,,,,,,,75,F,20,59.8311895615,"French, German, Spanish, Scottish Gaelic",American English,VSH_Exp2,2015_Nov_18_1718,
Recordings/zazu.wav,yes,z,z,a,no,u,zazu,Training,alveolar,TrainingItems,1,58,158,79,,,,,,,,,,,75,F,20,59.8311895615,"French, German, Spanish, Scottish Gaelic",American English,VSH_Exp2,2015_Nov_18_1718,
Recordings/sufi.wav,no,s,f,u,no,i,sufi,Training,alveolar,TrainingItems,1,59,159,30,,,,,,,,,,,75,F,20,59.8311895615,"French, German, Spanish, Scottish Gaelic",American English,VSH_Exp2,2015_Nov_18_1718,
Recordings/safu.wav,no,s,f,a,no,u,safu,Training,alveolar,TrainingItems,1,60,160,68,,,,,,,,,,,75,F,20,59.8311895615,"French, German, Spanish, Scottish Gaelic",American English,VSH_Exp2,2015_Nov_18_1718,
Recordings/tupu.wav,no,t,p,u,yes,u,tupu,Training,alveolar,TrainingItems,1,61,161,24,,,,,,,,,,,75,F,20,59.8311895615,"French, German, Spanish, Scottish Gaelic",American English,VSH_Exp2,2015_Nov_18_1718,
Recordings/zazi.wav,yes,z,z,a,no,i,zazi,Training,alveolar,TrainingItems,1,62,162,43,,,,,,,,,,,75,F,20,59.8311895615,"French, German, Spanish, Scottish Gaelic",American English,VSH_Exp2,2015_Nov_18_1718,
Recordings/vivu.wav,yes,v,v,i,no,u,vivu,Training,bilabial,TrainingItems,1,63,163,40,,,,,,,,,,,75,F,20,59.8311895615,"French, German, Spanish, Scottish Gaelic",American English,VSH_Exp2,2015_Nov_18_1718,
Recordings/sasa.wav,no,s,s,a,no,a,sasa,Training,alveolar,TrainingItems,1,64,164,8,,,,,,,,,,,75,F,20,59.8311895615,"French, German, Spanish, Scottish Gaelic",American English,VSH_Exp2,2015_Nov_18_1718,
Recordings/sifa.wav,no,s,f,i,no,a,sifa,Training,alveolar,TrainingItems,1,65,165,71,,,,,,,,,,,75,F,20,59.8311895615,"French, German, Spanish, Scottish Gaelic",American English,VSH_Exp2,2015_Nov_18_1718,
Recordings/fafu.wav,no,f,f,a,no,u,fafu,Training,bilabial,TrainingItems,1,66,166,28,,,,,,,,,,,75,F,20,59.8311895615,"French, German, Spanish, Scottish Gaelic",American English,VSH_Exp2,2015_Nov_18_1718,
Recordings/sisa.wav,no,s,s,i,no,a,sisa,Training,alveolar,TrainingItems,1,67,167,42,,,,,,,,,,,75,F,20,59.8311895615,"French, German, Spanish, Scottish Gaelic",American English,VSH_Exp2,2015_Nov_18_1718,
Recordings/tupa.wav,no,t,p,u,yes,a,tupa,Training,alveolar,TrainingItems,1,68,168,29,,,,,,,,,,,75,F,20,59.8311895615,"French, German, Spanish, Scottish Gaelic",American English,VSH_Exp2,2015_Nov_18_1718,
Recordings/bubu.wav,yes,b,b,u,yes,u,bubu,Training,bilabial,TrainingItems,1,69,169,64,,,,,,,,,,,75,F,20,59.8311895615,"French, German, Spanish, Scottish Gaelic",American English,VSH_Exp2,2015_Nov_18_1718,
Recordings/sasu.wav,no,s,s,a,no,u,sasu,Training,alveolar,TrainingItems,1,70,170,54,,,,,,,,,,,75,F,20,59.8311895615,"French, German, Spanish, Scottish Gaelic",American English,VSH_Exp2,2015_Nov_18_1718,
Recordings/sisu.wav,no,s,s,i,no,u,sisu,Training,alveolar,TrainingItems,1,71,171,51,,,,,,,,,,,75,F,20,59.8311895615,"French, German, Spanish, Scottish Gaelic",American English,VSH_Exp2,2015_Nov_18_1718,
Recordings/biba.wav,yes,b,b,i,yes,a,biba,Training,bilabial,TrainingItems,1,72,172,99,,,,,,,,,,,75,F,20,59.8311895615,"French, German, Spanish, Scottish Gaelic",American English,VSH_Exp2,2015_Nov_18_1718,
Recordings/sufu.wav,no,s,f,u,no,u,sufu,Training,alveolar,TrainingItems,1,73,173,6,,,,,,,,,,,75,F,20,59.8311895615,"French, German, Spanish, Scottish Gaelic",American English,VSH_Exp2,2015_Nov_18_1718,
Recordings/pupa.wav,no,p,p,u,yes,a,pupa,Training,bilabial,TrainingItems,1,74,174,26,,,,,,,,,,,75,F,20,59.8311895615,"French, German, Spanish, Scottish Gaelic",American English,VSH_Exp2,2015_Nov_18_1718,
Recordings/sasi.wav,no,s,s,a,no,i,sasi,Training,alveolar,TrainingItems,1,75,175,65,,,,,,,,,,,75,F,20,59.8311895615,"French, German, Spanish, Scottish Gaelic",American English,VSH_Exp2,2015_Nov_18_1718,
Recordings/vavu.wav,yes,v,v,a,no,u,vavu,Training,bilabial,TrainingItems,1,76,176,52,,,,,,,,,,,75,F,20,59.8311895615,"French, German, Spanish, Scottish Gaelic",American English,VSH_Exp2,2015_Nov_18_1718,
Recordings/tapi.wav,no,t,p,a,yes,i,tapi,Training,alveolar,TrainingItems,1,77,177,34,,,,,,,,,,,75,F,20,59.8311895615,"French, German, Spanish, Scottish Gaelic",American English,VSH_Exp2,2015_Nov_18_1718,
Recordings/vava.wav,yes,v,v,a,no,a,vava,Training,bilabial,TrainingItems,1,78,178,3,,,,,,,,,,,75,F,20,59.8311895615,"French, German, Spanish, Scottish Gaelic",American English,VSH_Exp2,2015_Nov_18_1718,
Recordings/titu.wav,no,t,t,i,yes,u,titu,Training,alveolar,TrainingItems,1,79,179,2,,,,,,,,,,,75,F,20,59.8311895615,"French, German, Spanish, Scottish Gaelic",American English,VSH_Exp2,2015_Nov_18_1718,
Recordings/tupi.wav,no,t,p,u,yes,i,tupi,Training,alveolar,TrainingItems,1,80,180,49,,,,,,,,,,,75,F,20,59.8311895615,"French, German, Spanish, Scottish Gaelic",American English,VSH_Exp2,2015_Nov_18_1718,
Recordings/viva.wav,yes,v,v,i,no,a,viva,Training,bilabial,TrainingItems,1,81,181,70,,,,,,,,,,,75,F,20,59.8311895615,"French, German, Spanish, Scottish Gaelic",American English,VSH_Exp2,2015_Nov_18_1718,
Recordings/tuta.wav,no,t,t,u,yes,a,tuta,Training,alveolar,TrainingItems,1,82,182,27,,,,,,,,,,,75,F,20,59.8311895615,"French, German, Spanish, Scottish Gaelic",American English,VSH_Exp2,2015_Nov_18_1718,
Recordings/vizi.wav,yes,v,z,i,no,i,vizi,Training,bilabial,TrainingItems,1,83,183,81,,,,,,,,,,,75,F,20,59.8311895615,"French, German, Spanish, Scottish Gaelic",American English,VSH_Exp2,2015_Nov_18_1718,
Recordings/zuvi.wav,yes,z,v,u,no,i,zuvi,Training,alveolar,TrainingItems,1,84,184,61,,,,,,,,,,,75,F,20,59.8311895615,"French, German, Spanish, Scottish Gaelic",American English,VSH_Exp2,2015_Nov_18_1718,
Recordings/vazi.wav,yes,v,z,a,no,i,vazi,Training,bilabial,TrainingItems,1,85,185,94,,,,,,,,,,,75,F,20,59.8311895615,"French, German, Spanish, Scottish Gaelic",American English,VSH_Exp2,2015_Nov_18_1718,
Recordings/pipa.wav,no,p,p,i,yes,a,pipa,Training,bilabial,TrainingItems,1,86,186,95,,,,,,,,,,,75,F,20,59.8311895615,"French, German, Spanish, Scottish Gaelic",American English,VSH_Exp2,2015_Nov_18_1718,
Recordings/susu.wav,no,s,s,u,no,u,susu,Training,alveolar,TrainingItems,1,87,187,41,,,,,,,,,,,75,F,20,59.8311895615,"French, German, Spanish, Scottish Gaelic",American English,VSH_Exp2,2015_Nov_18_1718,
Recordings/dada.wav,yes,d,d,a,yes,a,dada,Training,alveolar,TrainingItems,1,88,188,44,,,,,,,,,,,75,F,20,59.8311895615,"French, German, Spanish, Scottish Gaelic",American English,VSH_Exp2,2015_Nov_18_1718,
Recordings/zivi.wav,yes,z,v,i,no,i,zivi,Training,alveolar,TrainingItems,1,89,189,97,,,,,,,,,,,75,F,20,59.8311895615,"French, German, Spanish, Scottish Gaelic",American English,VSH_Exp2,2015_Nov_18_1718,
Recordings/dadu.wav,yes,d,d,a,yes,u,dadu,Training,alveolar,TrainingItems,1,90,190,85,,,,,,,,,,,75,F,20,59.8311895615,"French, German, Spanish, Scottish Gaelic",American English,VSH_Exp2,2015_Nov_18_1718,
Recordings/vaza.wav,yes,v,z,a,no,a,vaza,Training,bilabial,TrainingItems,1,91,191,50,,,,,,,,,,,75,F,20,59.8311895615,"French, German, Spanish, Scottish Gaelic",American English,VSH_Exp2,2015_Nov_18_1718,
Recordings/puta.wav,no,p,t,u,yes,a,puta,Training,bilabial,TrainingItems,1,92,192,93,,,,,,,,,,,75,F,20,59.8311895615,"French, German, Spanish, Scottish Gaelic",American English,VSH_Exp2,2015_Nov_18_1718,
Recordings/ziva.wav,yes,z,v,i,no,a,ziva,Training,alveolar,TrainingItems,1,93,193,38,,,,,,,,,,,75,F,20,59.8311895615,"French, German, Spanish, Scottish Gaelic",American English,VSH_Exp2,2015_Nov_18_1718,
Recordings/fifi.wav,no,f,f,i,no,i,fifi,Training,bilabial,TrainingItems,1,94,194,86,,,,,,,,,,,75,F,20,59.8311895615,"French, German, Spanish, Scottish Gaelic",American English,VSH_Exp2,2015_Nov_18_1718,
Recordings/sisi.wav,no,s,s,i,no,i,sisi,Training,alveolar,TrainingItems,1,95,195,21,,,,,,,,,,,75,F,20,59.8311895615,"French, German, Spanish, Scottish Gaelic",American English,VSH_Exp2,2015_Nov_18_1718,
Recordings/zavi.wav,yes,z,v,a,no,i,zavi,Training,alveolar,TrainingItems,1,96,196,55,,,,,,,,,,,75,F,20,59.8311895615,"French, German, Spanish, Scottish Gaelic",American English,VSH_Exp2,2015_Nov_18_1718,
Recordings/tati.wav,no,t,t,a,yes,i,tati,Training,alveolar,TrainingItems,1,97,197,58,,,,,,,,,,,75,F,20,59.8311895615,"French, German, Spanish, Scottish Gaelic",American English,VSH_Exp2,2015_Nov_18_1718,
Recordings/fufi.wav,no,f,f,u,no,i,fufi,Training,bilabial,TrainingItems,1,98,198,83,,,,,,,,,,,75,F,20,59.8311895615,"French, German, Spanish, Scottish Gaelic",American English,VSH_Exp2,2015_Nov_18_1718,
Recordings/tutu.wav,no,t,t,u,yes,u,tutu,Training,alveolar,TrainingItems,1,99,199,11,,,,,,,,,,,75,F,20,59.8311895615,"French, German, Spanish, Scottish Gaelic",American English,VSH_Exp2,2015_Nov_18_1718,
,,,,,,,,,,,,,,,,,,,,,space,8.71035194397,,,75,F,20,59.8311895615,"French, German, Spanish, Scottish Gaelic",American English,VSH_Exp2,2015_Nov_18_1718,
Recordings/diba.wav,yes,d,b,i,yes,a,diba,Test,alveolar,NewTestStimuli,,,,,0,0,0,17,,,,,Yes,3.223,75,F,20,59.8311895615,"French, German, Spanish, Scottish Gaelic",American English,VSH_Exp2,2015_Nov_18_1718,
Recordings/pusu.wav,no,p,s,u,yes,u,pusu,Controls,bilabial,VoicingControls,,,,,0,1,1,42,,,,,Yes,1.989,75,F,20,59.8311895615,"French, German, Spanish, Scottish Gaelic",American English,VSH_Exp2,2015_Nov_18_1718,
Recordings/padi.wav,no,p,d,a,yes,i,padi,Controls,bilabial,StopControls,,,,,0,2,2,32,,,,,No,5.692,75,F,20,59.8311895615,"French, German, Spanish, Scottish Gaelic",American English,VSH_Exp2,2015_Nov_18_1718,
Recordings/fufa.wav,no,f,f,u,no,a,fufa,Test,bilabial,OldTestStimuli,,,,,0,3,3,7,,,,,Yes,1.805,75,F,20,59.8311895615,"French, German, Spanish, Scottish Gaelic",American English,VSH_Exp2,2015_Nov_18_1718,
Recordings/pibi.wav,no,p,b,i,yes,i,pibi,Controls,bilabial,StopControls,,,,,0,4,4,31,,,,,No,2.772,75,F,20,59.8311895615,"French, German, Spanish, Scottish Gaelic",American English,VSH_Exp2,2015_Nov_18_1718,
Recordings/dibu.wav,yes,d,b,i,yes,u,dibu,Test,alveolar,NewTestStimuli,,,,,0,5,5,16,,,,,No,2.154,75,F,20,59.8311895615,"French, German, Spanish, Scottish Gaelic",American English,VSH_Exp2,2015_Nov_18_1718,
Recordings/tasu.wav,no,t,s,a,yes,u,tasu,Controls,alveolar,VoicingControls,,,,,0,6,6,47,,,,,No,1.588,75,F,20,59.8311895615,"French, German, Spanish, Scottish Gaelic",American English,VSH_Exp2,2015_Nov_18_1718,
Recordings/dizu.wav,yes,d,z,i,yes,u,dizu,Controls,alveolar,VoicingControls,,,,,0,7,7,37,,,,,Yes,1.704,75,F,20,59.8311895615,"French, German, Spanish, Scottish Gaelic",American English,VSH_Exp2,2015_Nov_18_1718,
Recordings/vusa.wav,yes,v,s,u,no,a,vusa,Controls,bilabial,StopControls,,,,,0,8,8,27,,,,,Yes,0.92,75,F,20,59.8311895615,"French, German, Spanish, Scottish Gaelic",American English,VSH_Exp2,2015_Nov_18_1718,
Recordings/ditu.wav,yes,d,t,i,yes,u,ditu,Controls,alveolar,StopControls,,,,,0,9,9,25,,,,,Yes,0.769,75,F,20,59.8311895615,"French, German, Spanish, Scottish Gaelic",American English,VSH_Exp2,2015_Nov_18_1718,
Recordings/budi.wav,yes,b,d,u,yes,i,budi,Test,bilabial,NewTestStimuli,,,,,0,10,10,23,,,,,Yes,3.323,75,F,20,59.8311895615,"French, German, Spanish, Scottish Gaelic",American English,VSH_Exp2,2015_Nov_18_1718,
Recordings/pasa.wav,no,p,s,a,yes,a,pasa,Controls,bilabial,VoicingControls,,,,,0,11,11,44,,,,,Yes,1.287,75,F,20,59.8311895615,"French, German, Spanish, Scottish Gaelic",American English,VSH_Exp2,2015_Nov_18_1718,
Recordings/zuvu.wav,yes,z,v,u,no,u,zuvu,Test,alveolar,OldTestStimuli,,,,,0,12,12,0,,,,,Yes,0.836,75,F,20,59.8311895615,"French, German, Spanish, Scottish Gaelic",American English,VSH_Exp2,2015_Nov_18_1718,
Recordings/pudu.wav,no,p,d,u,yes,u,pudu,Controls,bilabial,StopControls,,,,,0,13,13,30,,,,,Yes,0.737,75,F,20,59.8311895615,"French, German, Spanish, Scottish Gaelic",American English,VSH_Exp2,2015_Nov_18_1718,
Recordings/badi.wav,yes,b,d,a,yes,i,badi,Test,bilabial,NewTestStimuli,,,,,0,14,14,19,,,,,Yes,1.053,75,F,20,59.8311895615,"French, German, Spanish, Scottish Gaelic",American English,VSH_Exp2,2015_Nov_18_1718,
Recordings/bada.wav,yes,b,d,a,yes,a,bada,Test,bilabial,NewTestStimuli,,,,,0,15,15,13,,,,,Yes,0.92,75,F,20,59.8311895615,"French, German, Spanish, Scottish Gaelic",American English,VSH_Exp2,2015_Nov_18_1718,
Recordings/vuvu.wav,yes,v,v,u,no,u,vuvu,Test,bilabial,OldTestStimuli,,,,,0,16,16,4,,,,,Yes,0.72,75,F,20,59.8311895615,"French, German, Spanish, Scottish Gaelic",American English,VSH_Exp2,2015_Nov_18_1718,
Recordings/safi.wav,no,s,f,a,no,i,safi,Test,alveolar,OldTestStimuli,,,,,0,17,17,1,,,,,Yes,0.653,75,F,20,59.8311895615,"French, German, Spanish, Scottish Gaelic",American English,VSH_Exp2,2015_Nov_18_1718,
Recordings/paza.wav,no,p,z,a,yes,a,paza,Controls,bilabial,NoPatternControls,,,,,0,18,18,56,,,,,Yes,0.569,75,F,20,59.8311895615,"French, German, Spanish, Scottish Gaelic",American English,VSH_Exp2,2015_Nov_18_1718,
Recordings/sivi.wav,no,s,v,i,no,i,sivi,Controls,alveolar,StopControls,,,,,0,19,19,26,,,,,Yes,0.839,75,F,20,59.8311895615,"French, German, Spanish, Scottish Gaelic",American English,VSH_Exp2,2015_Nov_18_1718,
Recordings/vipu.wav,yes,v,p,i,no,u,vipu,Controls,bilabial,NoPatternControls,,,,,0,20,20,51,,,,,Yes,1.138,75,F,20,59.8311895615,"French, German, Spanish, Scottish Gaelic",American English,VSH_Exp2,2015_Nov_18_1718,
Recordings/dada.wav,yes,d,d,a,yes,a,dada,Test,alveolar,OldTestStimuli,,,,,0,21,21,6,,,,,Yes,0.686,75,F,20,59.8311895615,"French, German, Spanish, Scottish Gaelic",American English,VSH_Exp2,2015_Nov_18_1718,
Recordings/vuda.wav,yes,v,d,u,no,a,vuda,Controls,bilabial,VoicingControls,,,,,0,22,22,39,,,,,Yes,0.687,75,F,20,59.8311895615,"French, German, Spanish, Scottish Gaelic",American English,VSH_Exp2,2015_Nov_18_1718,
Recordings/tafu.wav,no,t,f,a,yes,u,tafu,Controls,alveolar,VoicingControls,,,,,0,23,23,46,,,,,Yes,0.787,75,F,20,59.8311895615,"French, German, Spanish, Scottish Gaelic",American English,VSH_Exp2,2015_Nov_18_1718,
Recordings/dafu.wav,yes,d,f,a,yes,u,dafu,Controls,alveolar,NoPatternControls,,,,,0,24,24,49,,,,,Yes,0.418,75,F,20,59.8311895615,"French, German, Spanish, Scottish Gaelic",American English,VSH_Exp2,2015_Nov_18_1718,
Recordings/budu.wav,yes,b,d,u,yes,u,budu,Test,bilabial,NewTestStimuli,,,,,0,25,25,22,,,,,Yes,0.954,75,F,20,59.8311895615,"French, German, Spanish, Scottish Gaelic",American English,VSH_Exp2,2015_Nov_18_1718,
Recordings/dubu.wav,yes,d,b,u,yes,u,dubu,Test,alveolar,NewTestStimuli,,,,,0,26,26,14,,,,,Yes,0.719,75,F,20,59.8311895615,"French, German, Spanish, Scottish Gaelic",American English,VSH_Exp2,2015_Nov_18_1718,
Recordings/daba.wav,yes,d,b,a,yes,a,daba,Test,alveolar,NewTestStimuli,,,,,0,27,27,15,,,,,Yes,0.703,75,F,20,59.8311895615,"French, German, Spanish, Scottish Gaelic",American English,VSH_Exp2,2015_Nov_18_1718,
Recordings/sipu.wav,no,s,p,i,no,u,sipu,Controls,alveolar,VoicingControls,,,,,0,28,28,38,,,,,Yes,0.785,75,F,20,59.8311895615,"French, German, Spanish, Scottish Gaelic",American English,VSH_Exp2,2015_Nov_18_1718,
Recordings/sufa.wav,no,s,f,u,no,a,sufa,Test,alveolar,OldTestStimuli,,,,,0,29,29,8,,,,,Yes,0.77,75,F,20,59.8311895615,"French, German, Spanish, Scottish Gaelic",American English,VSH_Exp2,2015_Nov_18_1718,
Recordings/viva.wav,yes,v,v,i,no,a,viva,Test,bilabial,OldTestStimuli,,,,,0,30,30,5,,,,,Yes,0.786,75,F,20,59.8311895615,"French, German, Spanish, Scottish Gaelic",American English,VSH_Exp2,2015_Nov_18_1718,
Recordings/didu.wav,yes,d,d,i,yes,u,didu,Test,alveolar,OldTestStimuli,,,,,0,31,31,2,,,,,Yes,0.503,75,F,20,59.8311895615,"French, German, Spanish, Scottish Gaelic",American English,VSH_Exp2,2015_Nov_18_1718,
Recordings/tivi.wav,no,t,v,i,yes,i,tivi,Controls,alveolar,NoPatternControls,,,,,0,32,32,59,,,,,Yes,0.571,75,F,20,59.8311895615,"French, German, Spanish, Scottish Gaelic",American English,VSH_Exp2,2015_Nov_18_1718,
Recordings/tuda.wav,no,t,d,u,yes,a,tuda,Controls,alveolar,StopControls,,,,,0,33,33,28,,,,,Yes,0.587,75,F,20,59.8311895615,"French, German, Spanish, Scottish Gaelic",American English,VSH_Exp2,2015_Nov_18_1718,
Recordings/dipu.wav,yes,d,p,i,yes,u,dipu,Controls,alveolar,StopControls,,,,,0,34,34,24,,,,,Yes,0.703,75,F,20,59.8311895615,"French, German, Spanish, Scottish Gaelic",American English,VSH_Exp2,2015_Nov_18_1718,
Recordings/piva.wav,no,p,v,i,yes,a,piva,Controls,bilabial,NoPatternControls,,,,,0,35,35,54,,,,,Yes,0.537,75,F,20,59.8311895615,"French, German, Spanish, Scottish Gaelic",American English,VSH_Exp2,2015_Nov_18_1718,
Recordings/zazu.wav,yes,z,z,a,no,u,zazu,Test,alveolar,OldTestStimuli,,,,,0,36,36,3,,,,,Yes,0.652,75,F,20,59.8311895615,"French, German, Spanish, Scottish Gaelic",American English,VSH_Exp2,2015_Nov_18_1718,
Recordings/pifi.wav,no,p,f,i,yes,i,pifi,Controls,bilabial,VoicingControls,,,,,0,37,37,43,,,,,Yes,0.519,75,F,20,59.8311895615,"French, German, Spanish, Scottish Gaelic",American English,VSH_Exp2,2015_Nov_18_1718,
Recordings/puza.wav,no,p,z,u,yes,a,puza,Controls,bilabial,NoPatternControls,,,,,0,38,38,57,,,,,Yes,0.453,75,F,20,59.8311895615,"French, German, Spanish, Scottish Gaelic",American English,VSH_Exp2,2015_Nov_18_1718,
Recordings/tibi.wav,no,t,b,i,yes,i,tibi,Controls,alveolar,StopControls,,,,,0,39,39,34,,,,,Yes,0.486,75,F,20,59.8311895615,"French, German, Spanish, Scottish Gaelic",American English,VSH_Exp2,2015_Nov_18_1718,
Recordings/tafa.wav,no,t,f,a,yes,a,tafa,Controls,alveolar,VoicingControls,,,,,0,40,40,41,,,,,Yes,0.469,75,F,20,59.8311895615,"French, German, Spanish, Scottish Gaelic",American English,VSH_Exp2,2015_Nov_18_1718,
Recordings/divu.wav,yes,d,v,i,yes,u,divu,Controls,alveolar,VoicingControls,,,,,0,41,41,36,,,,,Yes,0.407,75,F,20,59.8311895615,"French, German, Spanish, Scottish Gaelic",American English,VSH_Exp2,2015_Nov_18_1718,
Recordings/badu.wav,yes,b,d,a,yes,u,badu,Test,bilabial,NewTestStimuli,,,,,0,42,42,18,,,,,Yes,1.336,75,F,20,59.8311895615,"French, German, Spanish, Scottish Gaelic",American English,VSH_Exp2,2015_Nov_18_1718,
Recordings/papi.wav,no,p,p,a,yes,i,papi,Test,bilabial,OldTestStimuli,,,,,0,43,43,9,,,,,Yes,0.654,75,F,20,59.8311895615,"French, German, Spanish, Scottish Gaelic",American English,VSH_Exp2,2015_Nov_18_1718,
Recordings/tazi.wav,no,t,z,a,yes,i,tazi,Controls,alveolar,NoPatternControls,,,,,0,44,44,58,,,,,Yes,0.719,75,F,20,59.8311895615,"French, German, Spanish, Scottish Gaelic",American English,VSH_Exp2,2015_Nov_18_1718,
Recordings/siba.wav,no,s,b,i,no,a,siba,Controls,alveolar,NoPatternControls,,,,,0,45,45,50,,,,,Yes,0.536,75,F,20,59.8311895615,"French, German, Spanish, Scottish Gaelic",American English,VSH_Exp2,2015_Nov_18_1718,
Recordings/pizi.wav,no,p,z,i,yes,i,pizi,Controls,bilabial,NoPatternControls,,,,,0,46,46,55,,,,,Yes,0.569,75,F,20,59.8311895615,"French, German, Spanish, Scottish Gaelic",American English,VSH_Exp2,2015_Nov_18_1718,
Recordings/pasu.wav,no,p,s,a,yes,u,pasu,Controls,bilabial,VoicingControls,,,,,0,47,47,45,,,,,Yes,0.636,75,F,20,59.8311895615,"French, German, Spanish, Scottish Gaelic",American English,VSH_Exp2,2015_Nov_18_1718,
Recordings/bidu.wav,yes,b,d,i,yes,u,bidu,Test,bilabial,NewTestStimuli,,,,,0,48,48,12,,,,,Yes,0.837,75,F,20,59.8311895615,"French, German, Spanish, Scottish Gaelic",American English,VSH_Exp2,2015_Nov_18_1718,
Recordings/padu.wav,no,p,d,a,yes,u,padu,Controls,bilabial,StopControls,,,,,0,49,49,33,,,,,Yes,0.82,75,F,20,59.8311895615,"French, German, Spanish, Scottish Gaelic",American English,VSH_Exp2,2015_Nov_18_1718,
Recordings/tufa.wav,no,t,f,u,yes,a,tufa,Controls,alveolar,VoicingControls,,,,,0,50,50,40,,,,,Yes,0.786,75,F,20,59.8311895615,"French, German, Spanish, Scottish Gaelic",American English,VSH_Exp2,2015_Nov_18_1718,
Recordings/tabu.wav,no,t,b,a,yes,u,tabu,Controls,alveolar,StopControls,,,,,0,51,51,29,,,,,Yes,0.603,75,F,20,59.8311895615,"French, German, Spanish, Scottish Gaelic",American English,VSH_Exp2,2015_Nov_18_1718,
Recordings/tava.wav,no,t,v,a,yes,a,tava,Controls,alveolar,NoPatternControls,,,,,0,52,52,52,,,,,Yes,0.485,75,F,20,59.8311895615,"French, German, Spanish, Scottish Gaelic",American English,VSH_Exp2,2015_Nov_18_1718,
Recordings/tuvu.wav,no,t,v,u,yes,u,tuvu,Controls,alveolar,NoPatternControls,,,,,0,53,53,53,,,,,Yes,0.569,75,F,20,59.8311895615,"French, German, Spanish, Scottish Gaelic",American English,VSH_Exp2,2015_Nov_18_1718,
Recordings/difu.wav,yes,d,f,i,yes,u,difu,Controls,alveolar,NoPatternControls,,,,,0,54,54,48,,,,,Yes,0.587,75,F,20,59.8311895615,"French, German, Spanish, Scottish Gaelic",American English,VSH_Exp2,2015_Nov_18_1718,
Recordings/dabu.wav,yes,d,b,a,yes,u,dabu,Test,alveolar,NewTestStimuli,,,,,0,55,55,20,,,,,Yes,0.621,75,F,20,59.8311895615,"French, German, Spanish, Scottish Gaelic",American English,VSH_Exp2,2015_Nov_18_1718,
Recordings/dabi.wav,yes,d,b,a,yes,i,dabi,Test,alveolar,NewTestStimuli,,,,,0,56,56,21,,,,,Yes,1.003,75,F,20,59.8311895615,"French, German, Spanish, Scottish Gaelic",American English,VSH_Exp2,2015_Nov_18_1718,
Recordings/puti.wav,no,p,t,u,yes,i,puti,Test,bilabial,OldTestStimuli,,,,,0,57,57,11,,,,,Yes,1.218,75,F,20,59.8311895615,"French, German, Spanish, Scottish Gaelic",American English,VSH_Exp2,2015_Nov_18_1718,
Recordings/vazi.wav,yes,v,z,a,no,i,vazi,Test,bilabial,OldTestStimuli,,,,,0,58,58,10,,,,,Yes,0.586,75,F,20,59.8311895615,"French, German, Spanish, Scottish Gaelic",American English,VSH_Exp2,2015_Nov_18_1718,
Recordings/tidu.wav,no,t,d,i,yes,u,tidu,Controls,alveolar,StopControls,,,,,0,59,59,35,,,,,Yes,1.205,75,F,20,59.8311895615,"French, German, Spanish, Scottish Gaelic",American English,VSH_Exp2,2015_Nov_18_1718,
