SOUND,VOICING,SEGMENT,SEGMENT3,SEGMENT2,STOP,SEGMENT4,STIMULUS,GENERAL_TYPE,PLACE,TYPE,trials.thisRepN,trials.thisTrialN,trials.thisN,trials.thisIndex,trials_2.thisRepN,trials_2.thisTrialN,trials_2.thisN,trials_2.thisIndex,SpaceBar.keys,SpaceBar.rt,key_resp_2.keys,key_resp_2.rt,rating.response,rating.rt,participant,Gender,Age,frameRate,OtherLanguages,NativeLanguage,expName,date,
,,,,,,,,,,,,,,,,,,,space,1.53517889977,,,,,82,F,21,60.0056367447,"Mandarin Chinese, Albanian, Spanish, French (learning)",American English,VSH_Exp2,2015_Nov_18_1822,
Recordings/dudi.wav,yes,d,d,u,yes,i,dudi,Training,alveolar,TrainingItems,0,0,0,34,,,,,,,,,,,82,F,21,60.0056367447,"Mandarin Chinese, Albanian, Spanish, French (learning)",American English,VSH_Exp2,2015_Nov_18_1822,
Recordings/daba.wav,yes,d,b,a,yes,a,daba,Training,alveolar,TrainingItems,0,1,1,84,,,,,,,,,,,82,F,21,60.0056367447,"Mandarin Chinese, Albanian, Spanish, French (learning)",American English,VSH_Exp2,2015_Nov_18_1822,
Recordings/bibi.wav,yes,b,b,i,yes,i,bibi,Training,bilabial,TrainingItems,0,2,2,78,,,,,,,,,,,82,F,21,60.0056367447,"Mandarin Chinese, Albanian, Spanish, French (learning)",American English,VSH_Exp2,2015_Nov_18_1822,
Recordings/duda.wav,yes,d,d,u,yes,a,duda,Training,alveolar,TrainingItems,0,3,3,50,,,,,,,,,,,82,F,21,60.0056367447,"Mandarin Chinese, Albanian, Spanish, French (learning)",American English,VSH_Exp2,2015_Nov_18_1822,
Recordings/zivi.wav,yes,z,v,i,no,i,zivi,Training,alveolar,TrainingItems,0,4,4,23,,,,,,,,,,,82,F,21,60.0056367447,"Mandarin Chinese, Albanian, Spanish, French (learning)",American English,VSH_Exp2,2015_Nov_18_1822,
Recordings/sasa.wav,no,s,s,a,no,a,sasa,Training,alveolar,TrainingItems,0,5,5,28,,,,,,,,,,,82,F,21,60.0056367447,"Mandarin Chinese, Albanian, Spanish, French (learning)",American English,VSH_Exp2,2015_Nov_18_1822,
Recordings/fisi.wav,no,f,s,i,no,i,fisi,Training,bilabial,TrainingItems,0,6,6,21,,,,,,,,,,,82,F,21,60.0056367447,"Mandarin Chinese, Albanian, Spanish, French (learning)",American English,VSH_Exp2,2015_Nov_18_1822,
Recordings/zuvu.wav,yes,z,v,u,no,u,zuvu,Training,alveolar,TrainingItems,0,7,7,54,,,,,,,,,,,82,F,21,60.0056367447,"Mandarin Chinese, Albanian, Spanish, French (learning)",American English,VSH_Exp2,2015_Nov_18_1822,
Recordings/papi.wav,no,p,p,a,yes,i,papi,Training,bilabial,TrainingItems,0,8,8,7,,,,,,,,,,,82,F,21,60.0056367447,"Mandarin Chinese, Albanian, Spanish, French (learning)",American English,VSH_Exp2,2015_Nov_18_1822,
Recordings/fifa.wav,no,f,f,i,no,a,fifa,Training,bilabial,TrainingItems,0,9,9,38,,,,,,,,,,,82,F,21,60.0056367447,"Mandarin Chinese, Albanian, Spanish, French (learning)",American English,VSH_Exp2,2015_Nov_18_1822,
Recordings/sufu.wav,no,s,f,u,no,u,sufu,Training,alveolar,TrainingItems,0,10,10,77,,,,,,,,,,,82,F,21,60.0056367447,"Mandarin Chinese, Albanian, Spanish, French (learning)",American English,VSH_Exp2,2015_Nov_18_1822,
Recordings/vuvi.wav,yes,v,v,u,no,i,vuvi,Training,bilabial,TrainingItems,0,11,11,20,,,,,,,,,,,82,F,21,60.0056367447,"Mandarin Chinese, Albanian, Spanish, French (learning)",American English,VSH_Exp2,2015_Nov_18_1822,
Recordings/ziva.wav,yes,z,v,i,no,a,ziva,Training,alveolar,TrainingItems,0,12,12,14,,,,,,,,,,,82,F,21,60.0056367447,"Mandarin Chinese, Albanian, Spanish, French (learning)",American English,VSH_Exp2,2015_Nov_18_1822,
Recordings/budi.wav,yes,b,d,u,yes,i,budi,Training,bilabial,TrainingItems,0,13,13,81,,,,,,,,,,,82,F,21,60.0056367447,"Mandarin Chinese, Albanian, Spanish, French (learning)",American English,VSH_Exp2,2015_Nov_18_1822,
Recordings/tita.wav,no,t,t,i,yes,a,tita,Training,alveolar,TrainingItems,0,14,14,6,,,,,,,,,,,82,F,21,60.0056367447,"Mandarin Chinese, Albanian, Spanish, French (learning)",American English,VSH_Exp2,2015_Nov_18_1822,
Recordings/susu.wav,no,s,s,u,no,u,susu,Training,alveolar,TrainingItems,0,15,15,75,,,,,,,,,,,82,F,21,60.0056367447,"Mandarin Chinese, Albanian, Spanish, French (learning)",American English,VSH_Exp2,2015_Nov_18_1822,
Recordings/dada.wav,yes,d,d,a,yes,a,dada,Training,alveolar,TrainingItems,0,16,16,83,,,,,,,,,,,82,F,21,60.0056367447,"Mandarin Chinese, Albanian, Spanish, French (learning)",American English,VSH_Exp2,2015_Nov_18_1822,
Recordings/dida.wav,yes,d,d,i,yes,a,dida,Training,alveolar,TrainingItems,0,17,17,8,,,,,,,,,,,82,F,21,60.0056367447,"Mandarin Chinese, Albanian, Spanish, French (learning)",American English,VSH_Exp2,2015_Nov_18_1822,
Recordings/bubi.wav,yes,b,b,u,yes,i,bubi,Training,bilabial,TrainingItems,0,18,18,92,,,,,,,,,,,82,F,21,60.0056367447,"Mandarin Chinese, Albanian, Spanish, French (learning)",American English,VSH_Exp2,2015_Nov_18_1822,
Recordings/tati.wav,no,t,t,a,yes,i,tati,Training,alveolar,TrainingItems,0,19,19,42,,,,,,,,,,,82,F,21,60.0056367447,"Mandarin Chinese, Albanian, Spanish, French (learning)",American English,VSH_Exp2,2015_Nov_18_1822,
Recordings/fifi.wav,no,f,f,i,no,i,fifi,Training,bilabial,TrainingItems,0,20,20,58,,,,,,,,,,,82,F,21,60.0056367447,"Mandarin Chinese, Albanian, Spanish, French (learning)",American English,VSH_Exp2,2015_Nov_18_1822,
Recordings/vava.wav,yes,v,v,a,no,a,vava,Training,bilabial,TrainingItems,0,21,21,62,,,,,,,,,,,82,F,21,60.0056367447,"Mandarin Chinese, Albanian, Spanish, French (learning)",American English,VSH_Exp2,2015_Nov_18_1822,
Recordings/sifu.wav,no,s,f,i,no,u,sifu,Training,alveolar,TrainingItems,0,22,22,37,,,,,,,,,,,82,F,21,60.0056367447,"Mandarin Chinese, Albanian, Spanish, French (learning)",American English,VSH_Exp2,2015_Nov_18_1822,
Recordings/papa.wav,no,p,p,a,yes,a,papa,Training,bilabial,TrainingItems,0,23,23,71,,,,,,,,,,,82,F,21,60.0056367447,"Mandarin Chinese, Albanian, Spanish, French (learning)",American English,VSH_Exp2,2015_Nov_18_1822,
Recordings/titi.wav,no,t,t,i,yes,i,titi,Training,alveolar,TrainingItems,0,24,24,51,,,,,,,,,,,82,F,21,60.0056367447,"Mandarin Chinese, Albanian, Spanish, French (learning)",American English,VSH_Exp2,2015_Nov_18_1822,
Recordings/buba.wav,yes,b,b,u,yes,a,buba,Training,bilabial,TrainingItems,0,25,25,47,,,,,,,,,,,82,F,21,60.0056367447,"Mandarin Chinese, Albanian, Spanish, French (learning)",American English,VSH_Exp2,2015_Nov_18_1822,
Recordings/bidu.wav,yes,b,d,i,yes,u,bidu,Training,bilabial,TrainingItems,0,26,26,61,,,,,,,,,,,82,F,21,60.0056367447,"Mandarin Chinese, Albanian, Spanish, French (learning)",American English,VSH_Exp2,2015_Nov_18_1822,
Recordings/bibu.wav,yes,b,b,i,yes,u,bibu,Training,bilabial,TrainingItems,0,27,27,24,,,,,,,,,,,82,F,21,60.0056367447,"Mandarin Chinese, Albanian, Spanish, French (learning)",American English,VSH_Exp2,2015_Nov_18_1822,
Recordings/vizu.wav,yes,v,z,i,no,u,vizu,Training,bilabial,TrainingItems,0,28,28,29,,,,,,,,,,,82,F,21,60.0056367447,"Mandarin Chinese, Albanian, Spanish, French (learning)",American English,VSH_Exp2,2015_Nov_18_1822,
Recordings/sasi.wav,no,s,s,a,no,i,sasi,Training,alveolar,TrainingItems,0,29,29,74,,,,,,,,,,,82,F,21,60.0056367447,"Mandarin Chinese, Albanian, Spanish, French (learning)",American English,VSH_Exp2,2015_Nov_18_1822,
Recordings/babi.wav,yes,b,b,a,yes,i,babi,Training,bilabial,TrainingItems,0,30,30,68,,,,,,,,,,,82,F,21,60.0056367447,"Mandarin Chinese, Albanian, Spanish, French (learning)",American English,VSH_Exp2,2015_Nov_18_1822,
Recordings/dubi.wav,yes,d,b,u,yes,i,dubi,Training,alveolar,TrainingItems,0,31,31,15,,,,,,,,,,,82,F,21,60.0056367447,"Mandarin Chinese, Albanian, Spanish, French (learning)",American English,VSH_Exp2,2015_Nov_18_1822,
Recordings/zuva.wav,yes,z,v,u,no,a,zuva,Training,alveolar,TrainingItems,0,32,32,18,,,,,,,,,,,82,F,21,60.0056367447,"Mandarin Chinese, Albanian, Spanish, French (learning)",American English,VSH_Exp2,2015_Nov_18_1822,
Recordings/zaza.wav,yes,z,z,a,no,a,zaza,Training,alveolar,TrainingItems,0,33,33,43,,,,,,,,,,,82,F,21,60.0056367447,"Mandarin Chinese, Albanian, Spanish, French (learning)",American English,VSH_Exp2,2015_Nov_18_1822,
Recordings/vizi.wav,yes,v,z,i,no,i,vizi,Training,bilabial,TrainingItems,0,34,34,27,,,,,,,,,,,82,F,21,60.0056367447,"Mandarin Chinese, Albanian, Spanish, French (learning)",American English,VSH_Exp2,2015_Nov_18_1822,
Recordings/dabu.wav,yes,d,b,a,yes,u,dabu,Training,alveolar,TrainingItems,0,35,35,60,,,,,,,,,,,82,F,21,60.0056367447,"Mandarin Chinese, Albanian, Spanish, French (learning)",American English,VSH_Exp2,2015_Nov_18_1822,
Recordings/fusi.wav,no,f,s,u,no,i,fusi,Training,bilabial,TrainingItems,0,36,36,1,,,,,,,,,,,82,F,21,60.0056367447,"Mandarin Chinese, Albanian, Spanish, French (learning)",American English,VSH_Exp2,2015_Nov_18_1822,
Recordings/dibi.wav,yes,d,b,i,yes,i,dibi,Training,alveolar,TrainingItems,0,37,37,73,,,,,,,,,,,82,F,21,60.0056367447,"Mandarin Chinese, Albanian, Spanish, French (learning)",American English,VSH_Exp2,2015_Nov_18_1822,
Recordings/sisi.wav,no,s,s,i,no,i,sisi,Training,alveolar,TrainingItems,0,38,38,89,,,,,,,,,,,82,F,21,60.0056367447,"Mandarin Chinese, Albanian, Spanish, French (learning)",American English,VSH_Exp2,2015_Nov_18_1822,
Recordings/tatu.wav,no,t,t,a,yes,u,tatu,Training,alveolar,TrainingItems,0,39,39,0,,,,,,,,,,,82,F,21,60.0056367447,"Mandarin Chinese, Albanian, Spanish, French (learning)",American English,VSH_Exp2,2015_Nov_18_1822,
Recordings/badu.wav,yes,b,d,a,yes,u,badu,Training,bilabial,TrainingItems,0,40,40,53,,,,,,,,,,,82,F,21,60.0056367447,"Mandarin Chinese, Albanian, Spanish, French (learning)",American English,VSH_Exp2,2015_Nov_18_1822,
Recordings/vuza.wav,yes,v,z,u,no,a,vuza,Training,bilabial,TrainingItems,0,41,41,95,,,,,,,,,,,82,F,21,60.0056367447,"Mandarin Chinese, Albanian, Spanish, French (learning)",American English,VSH_Exp2,2015_Nov_18_1822,
Recordings/zuvi.wav,yes,z,v,u,no,i,zuvi,Training,alveolar,TrainingItems,0,42,42,39,,,,,,,,,,,82,F,21,60.0056367447,"Mandarin Chinese, Albanian, Spanish, French (learning)",American English,VSH_Exp2,2015_Nov_18_1822,
Recordings/pipu.wav,no,p,p,i,yes,u,pipu,Training,bilabial,TrainingItems,0,43,43,94,,,,,,,,,,,82,F,21,60.0056367447,"Mandarin Chinese, Albanian, Spanish, French (learning)",American English,VSH_Exp2,2015_Nov_18_1822,
Recordings/zuzi.wav,yes,z,z,u,no,i,zuzi,Training,alveolar,TrainingItems,0,44,44,33,,,,,,,,,,,82,F,21,60.0056367447,"Mandarin Chinese, Albanian, Spanish, French (learning)",American English,VSH_Exp2,2015_Nov_18_1822,
Recordings/titu.wav,no,t,t,i,yes,u,titu,Training,alveolar,TrainingItems,0,45,45,65,,,,,,,,,,,82,F,21,60.0056367447,"Mandarin Chinese, Albanian, Spanish, French (learning)",American English,VSH_Exp2,2015_Nov_18_1822,
Recordings/sasu.wav,no,s,s,a,no,u,sasu,Training,alveolar,TrainingItems,0,46,46,9,,,,,,,,,,,82,F,21,60.0056367447,"Mandarin Chinese, Albanian, Spanish, French (learning)",American English,VSH_Exp2,2015_Nov_18_1822,
Recordings/viza.wav,yes,v,z,i,no,a,viza,Training,bilabial,TrainingItems,0,47,47,11,,,,,,,,,,,82,F,21,60.0056367447,"Mandarin Chinese, Albanian, Spanish, French (learning)",American English,VSH_Exp2,2015_Nov_18_1822,
Recordings/diba.wav,yes,d,b,i,yes,a,diba,Training,alveolar,TrainingItems,0,48,48,82,,,,,,,,,,,82,F,21,60.0056367447,"Mandarin Chinese, Albanian, Spanish, French (learning)",American English,VSH_Exp2,2015_Nov_18_1822,
Recordings/sifa.wav,no,s,f,i,no,a,sifa,Training,alveolar,TrainingItems,0,49,49,96,,,,,,,,,,,82,F,21,60.0056367447,"Mandarin Chinese, Albanian, Spanish, French (learning)",American English,VSH_Exp2,2015_Nov_18_1822,
Recordings/fufu.wav,no,f,f,u,no,u,fufu,Training,bilabial,TrainingItems,0,50,50,48,,,,,,,,,,,82,F,21,60.0056367447,"Mandarin Chinese, Albanian, Spanish, French (learning)",American English,VSH_Exp2,2015_Nov_18_1822,
Recordings/zuza.wav,yes,z,z,u,no,a,zuza,Training,alveolar,TrainingItems,0,51,51,88,,,,,,,,,,,82,F,21,60.0056367447,"Mandarin Chinese, Albanian, Spanish, French (learning)",American English,VSH_Exp2,2015_Nov_18_1822,
Recordings/sisu.wav,no,s,s,i,no,u,sisu,Training,alveolar,TrainingItems,0,52,52,98,,,,,,,,,,,82,F,21,60.0056367447,"Mandarin Chinese, Albanian, Spanish, French (learning)",American English,VSH_Exp2,2015_Nov_18_1822,
Recordings/zivu.wav,yes,z,v,i,no,u,zivu,Training,alveolar,TrainingItems,0,53,53,41,,,,,,,,,,,82,F,21,60.0056367447,"Mandarin Chinese, Albanian, Spanish, French (learning)",American English,VSH_Exp2,2015_Nov_18_1822,
Recordings/sufi.wav,no,s,f,u,no,i,sufi,Training,alveolar,TrainingItems,0,54,54,93,,,,,,,,,,,82,F,21,60.0056367447,"Mandarin Chinese, Albanian, Spanish, French (learning)",American English,VSH_Exp2,2015_Nov_18_1822,
Recordings/dibu.wav,yes,d,b,i,yes,u,dibu,Training,alveolar,TrainingItems,0,55,55,66,,,,,,,,,,,82,F,21,60.0056367447,"Mandarin Chinese, Albanian, Spanish, French (learning)",American English,VSH_Exp2,2015_Nov_18_1822,
Recordings/duba.wav,yes,d,b,u,yes,a,duba,Training,alveolar,TrainingItems,0,56,56,3,,,,,,,,,,,82,F,21,60.0056367447,"Mandarin Chinese, Albanian, Spanish, French (learning)",American English,VSH_Exp2,2015_Nov_18_1822,
Recordings/vuva.wav,yes,v,v,u,no,a,vuva,Training,bilabial,TrainingItems,0,57,57,22,,,,,,,,,,,82,F,21,60.0056367447,"Mandarin Chinese, Albanian, Spanish, French (learning)",American English,VSH_Exp2,2015_Nov_18_1822,
Recordings/vuvu.wav,yes,v,v,u,no,u,vuvu,Training,bilabial,TrainingItems,0,58,58,46,,,,,,,,,,,82,F,21,60.0056367447,"Mandarin Chinese, Albanian, Spanish, French (learning)",American English,VSH_Exp2,2015_Nov_18_1822,
Recordings/ziza.wav,yes,z,z,i,no,a,ziza,Training,alveolar,TrainingItems,0,59,59,19,,,,,,,,,,,82,F,21,60.0056367447,"Mandarin Chinese, Albanian, Spanish, French (learning)",American English,VSH_Exp2,2015_Nov_18_1822,
Recordings/tuta.wav,no,t,t,u,yes,a,tuta,Training,alveolar,TrainingItems,0,60,60,55,,,,,,,,,,,82,F,21,60.0056367447,"Mandarin Chinese, Albanian, Spanish, French (learning)",American English,VSH_Exp2,2015_Nov_18_1822,
Recordings/baba.wav,yes,b,b,a,yes,a,baba,Training,bilabial,TrainingItems,0,61,61,2,,,,,,,,,,,82,F,21,60.0056367447,"Mandarin Chinese, Albanian, Spanish, French (learning)",American English,VSH_Exp2,2015_Nov_18_1822,
Recordings/vazu.wav,yes,v,z,a,no,u,vazu,Training,bilabial,TrainingItems,0,62,62,12,,,,,,,,,,,82,F,21,60.0056367447,"Mandarin Chinese, Albanian, Spanish, French (learning)",American English,VSH_Exp2,2015_Nov_18_1822,
Recordings/sufa.wav,no,s,f,u,no,a,sufa,Training,alveolar,TrainingItems,0,63,63,70,,,,,,,,,,,82,F,21,60.0056367447,"Mandarin Chinese, Albanian, Spanish, French (learning)",American English,VSH_Exp2,2015_Nov_18_1822,
Recordings/bidi.wav,yes,b,d,i,yes,i,bidi,Training,bilabial,TrainingItems,0,64,64,30,,,,,,,,,,,82,F,21,60.0056367447,"Mandarin Chinese, Albanian, Spanish, French (learning)",American English,VSH_Exp2,2015_Nov_18_1822,
Recordings/vivi.wav,yes,v,v,i,no,i,vivi,Training,bilabial,TrainingItems,0,65,65,79,,,,,,,,,,,82,F,21,60.0056367447,"Mandarin Chinese, Albanian, Spanish, French (learning)",American English,VSH_Exp2,2015_Nov_18_1822,
Recordings/papu.wav,no,p,p,a,yes,u,papu,Training,bilabial,TrainingItems,0,66,66,72,,,,,,,,,,,82,F,21,60.0056367447,"Mandarin Chinese, Albanian, Spanish, French (learning)",American English,VSH_Exp2,2015_Nov_18_1822,
Recordings/susi.wav,no,s,s,u,no,i,susi,Training,alveolar,TrainingItems,0,67,67,63,,,,,,,,,,,82,F,21,60.0056367447,"Mandarin Chinese, Albanian, Spanish, French (learning)",American English,VSH_Exp2,2015_Nov_18_1822,
Recordings/pipi.wav,no,p,p,i,yes,i,pipi,Training,bilabial,TrainingItems,0,68,68,35,,,,,,,,,,,82,F,21,60.0056367447,"Mandarin Chinese, Albanian, Spanish, French (learning)",American English,VSH_Exp2,2015_Nov_18_1822,
Recordings/fafi.wav,no,f,f,a,no,i,fafi,Training,bilabial,TrainingItems,0,69,69,26,,,,,,,,,,,82,F,21,60.0056367447,"Mandarin Chinese, Albanian, Spanish, French (learning)",American English,VSH_Exp2,2015_Nov_18_1822,
Recordings/vazi.wav,yes,v,z,a,no,i,vazi,Training,bilabial,TrainingItems,0,70,70,90,,,,,,,,,,,82,F,21,60.0056367447,"Mandarin Chinese, Albanian, Spanish, French (learning)",American English,VSH_Exp2,2015_Nov_18_1822,
Recordings/fafa.wav,no,f,f,a,no,a,fafa,Training,bilabial,TrainingItems,0,71,71,91,,,,,,,,,,,82,F,21,60.0056367447,"Mandarin Chinese, Albanian, Spanish, French (learning)",American English,VSH_Exp2,2015_Nov_18_1822,
Recordings/fusu.wav,no,f,s,u,no,u,fusu,Training,bilabial,TrainingItems,0,72,72,69,,,,,,,,,,,82,F,21,60.0056367447,"Mandarin Chinese, Albanian, Spanish, French (learning)",American English,VSH_Exp2,2015_Nov_18_1822,
Recordings/sisa.wav,no,s,s,i,no,a,sisa,Training,alveolar,TrainingItems,0,73,73,67,,,,,,,,,,,82,F,21,60.0056367447,"Mandarin Chinese, Albanian, Spanish, French (learning)",American English,VSH_Exp2,2015_Nov_18_1822,
Recordings/babu.wav,yes,b,b,a,yes,u,babu,Training,bilabial,TrainingItems,0,74,74,87,,,,,,,,,,,82,F,21,60.0056367447,"Mandarin Chinese, Albanian, Spanish, French (learning)",American English,VSH_Exp2,2015_Nov_18_1822,
Recordings/didu.wav,yes,d,d,i,yes,u,didu,Training,alveolar,TrainingItems,0,75,75,59,,,,,,,,,,,82,F,21,60.0056367447,"Mandarin Chinese, Albanian, Spanish, French (learning)",American English,VSH_Exp2,2015_Nov_18_1822,
Recordings/zizu.wav,yes,z,z,i,no,u,zizu,Training,alveolar,TrainingItems,0,76,76,76,,,,,,,,,,,82,F,21,60.0056367447,"Mandarin Chinese, Albanian, Spanish, French (learning)",American English,VSH_Exp2,2015_Nov_18_1822,
Recordings/safi.wav,no,s,f,a,no,i,safi,Training,alveolar,TrainingItems,0,77,77,16,,,,,,,,,,,82,F,21,60.0056367447,"Mandarin Chinese, Albanian, Spanish, French (learning)",American English,VSH_Exp2,2015_Nov_18_1822,
Recordings/fufi.wav,no,f,f,u,no,i,fufi,Training,bilabial,TrainingItems,0,78,78,80,,,,,,,,,,,82,F,21,60.0056367447,"Mandarin Chinese, Albanian, Spanish, French (learning)",American English,VSH_Exp2,2015_Nov_18_1822,
Recordings/pipa.wav,no,p,p,i,yes,a,pipa,Training,bilabial,TrainingItems,0,79,79,17,,,,,,,,,,,82,F,21,60.0056367447,"Mandarin Chinese, Albanian, Spanish, French (learning)",American English,VSH_Exp2,2015_Nov_18_1822,
Recordings/badi.wav,yes,b,d,a,yes,i,badi,Training,bilabial,TrainingItems,0,80,80,44,,,,,,,,,,,82,F,21,60.0056367447,"Mandarin Chinese, Albanian, Spanish, French (learning)",American English,VSH_Exp2,2015_Nov_18_1822,
Recordings/fusa.wav,no,f,s,u,no,a,fusa,Training,bilabial,TrainingItems,0,81,81,97,,,,,,,,,,,82,F,21,60.0056367447,"Mandarin Chinese, Albanian, Spanish, French (learning)",American English,VSH_Exp2,2015_Nov_18_1822,
Recordings/safu.wav,no,s,f,a,no,u,safu,Training,alveolar,TrainingItems,0,82,82,10,,,,,,,,,,,82,F,21,60.0056367447,"Mandarin Chinese, Albanian, Spanish, French (learning)",American English,VSH_Exp2,2015_Nov_18_1822,
Recordings/safa.wav,no,s,f,a,no,a,safa,Training,alveolar,TrainingItems,0,83,83,13,,,,,,,,,,,82,F,21,60.0056367447,"Mandarin Chinese, Albanian, Spanish, French (learning)",American English,VSH_Exp2,2015_Nov_18_1822,
Recordings/vuzi.wav,yes,v,z,u,no,i,vuzi,Training,bilabial,TrainingItems,0,84,84,86,,,,,,,,,,,82,F,21,60.0056367447,"Mandarin Chinese, Albanian, Spanish, French (learning)",American English,VSH_Exp2,2015_Nov_18_1822,
Recordings/vuzu.wav,yes,v,z,u,no,u,vuzu,Training,bilabial,TrainingItems,0,85,85,56,,,,,,,,,,,82,F,21,60.0056367447,"Mandarin Chinese, Albanian, Spanish, French (learning)",American English,VSH_Exp2,2015_Nov_18_1822,
Recordings/dabi.wav,yes,d,b,a,yes,i,dabi,Training,alveolar,TrainingItems,0,86,86,85,,,,,,,,,,,82,F,21,60.0056367447,"Mandarin Chinese, Albanian, Spanish, French (learning)",American English,VSH_Exp2,2015_Nov_18_1822,
Recordings/vaza.wav,yes,v,z,a,no,a,vaza,Training,bilabial,TrainingItems,0,87,87,31,,,,,,,,,,,82,F,21,60.0056367447,"Mandarin Chinese, Albanian, Spanish, French (learning)",American English,VSH_Exp2,2015_Nov_18_1822,
Recordings/fisu.wav,no,f,s,i,no,u,fisu,Training,bilabial,TrainingItems,0,88,88,5,,,,,,,,,,,82,F,21,60.0056367447,"Mandarin Chinese, Albanian, Spanish, French (learning)",American English,VSH_Exp2,2015_Nov_18_1822,
Recordings/zizi.wav,yes,z,z,i,no,i,zizi,Training,alveolar,TrainingItems,0,89,89,49,,,,,,,,,,,82,F,21,60.0056367447,"Mandarin Chinese, Albanian, Spanish, French (learning)",American English,VSH_Exp2,2015_Nov_18_1822,
Recordings/tata.wav,no,t,t,a,yes,a,tata,Training,alveolar,TrainingItems,0,90,90,4,,,,,,,,,,,82,F,21,60.0056367447,"Mandarin Chinese, Albanian, Spanish, French (learning)",American English,VSH_Exp2,2015_Nov_18_1822,
Recordings/zava.wav,yes,z,v,a,no,a,zava,Training,alveolar,TrainingItems,0,91,91,40,,,,,,,,,,,82,F,21,60.0056367447,"Mandarin Chinese, Albanian, Spanish, French (learning)",American English,VSH_Exp2,2015_Nov_18_1822,
Recordings/buda.wav,yes,b,d,u,yes,a,buda,Training,bilabial,TrainingItems,0,92,92,36,,,,,,,,,,,82,F,21,60.0056367447,"Mandarin Chinese, Albanian, Spanish, French (learning)",American English,VSH_Exp2,2015_Nov_18_1822,
Recordings/tutu.wav,no,t,t,u,yes,u,tutu,Training,alveolar,TrainingItems,0,93,93,32,,,,,,,,,,,82,F,21,60.0056367447,"Mandarin Chinese, Albanian, Spanish, French (learning)",American English,VSH_Exp2,2015_Nov_18_1822,
Recordings/bubu.wav,yes,b,b,u,yes,u,bubu,Training,bilabial,TrainingItems,0,94,94,45,,,,,,,,,,,82,F,21,60.0056367447,"Mandarin Chinese, Albanian, Spanish, French (learning)",American English,VSH_Exp2,2015_Nov_18_1822,
Recordings/zavu.wav,yes,z,v,a,no,u,zavu,Training,alveolar,TrainingItems,0,95,95,99,,,,,,,,,,,82,F,21,60.0056367447,"Mandarin Chinese, Albanian, Spanish, French (learning)",American English,VSH_Exp2,2015_Nov_18_1822,
Recordings/pupa.wav,no,p,p,u,yes,a,pupa,Training,bilabial,TrainingItems,0,96,96,52,,,,,,,,,,,82,F,21,60.0056367447,"Mandarin Chinese, Albanian, Spanish, French (learning)",American English,VSH_Exp2,2015_Nov_18_1822,
Recordings/vavi.wav,yes,v,v,a,no,i,vavi,Training,bilabial,TrainingItems,0,97,97,57,,,,,,,,,,,82,F,21,60.0056367447,"Mandarin Chinese, Albanian, Spanish, French (learning)",American English,VSH_Exp2,2015_Nov_18_1822,
Recordings/vivu.wav,yes,v,v,i,no,u,vivu,Training,bilabial,TrainingItems,0,98,98,64,,,,,,,,,,,82,F,21,60.0056367447,"Mandarin Chinese, Albanian, Spanish, French (learning)",American English,VSH_Exp2,2015_Nov_18_1822,
Recordings/fufa.wav,no,f,f,u,no,a,fufa,Training,bilabial,TrainingItems,0,99,99,25,,,,,,,,,,,82,F,21,60.0056367447,"Mandarin Chinese, Albanian, Spanish, French (learning)",American English,VSH_Exp2,2015_Nov_18_1822,
Recordings/sufa.wav,no,s,f,u,no,a,sufa,Training,alveolar,TrainingItems,1,0,100,70,,,,,,,,,,,82,F,21,60.0056367447,"Mandarin Chinese, Albanian, Spanish, French (learning)",American English,VSH_Exp2,2015_Nov_18_1822,
Recordings/sifa.wav,no,s,f,i,no,a,sifa,Training,alveolar,TrainingItems,1,1,101,96,,,,,,,,,,,82,F,21,60.0056367447,"Mandarin Chinese, Albanian, Spanish, French (learning)",American English,VSH_Exp2,2015_Nov_18_1822,
Recordings/bubu.wav,yes,b,b,u,yes,u,bubu,Training,bilabial,TrainingItems,1,2,102,45,,,,,,,,,,,82,F,21,60.0056367447,"Mandarin Chinese, Albanian, Spanish, French (learning)",American English,VSH_Exp2,2015_Nov_18_1822,
Recordings/titi.wav,no,t,t,i,yes,i,titi,Training,alveolar,TrainingItems,1,3,103,51,,,,,,,,,,,82,F,21,60.0056367447,"Mandarin Chinese, Albanian, Spanish, French (learning)",American English,VSH_Exp2,2015_Nov_18_1822,
Recordings/dabu.wav,yes,d,b,a,yes,u,dabu,Training,alveolar,TrainingItems,1,4,104,60,,,,,,,,,,,82,F,21,60.0056367447,"Mandarin Chinese, Albanian, Spanish, French (learning)",American English,VSH_Exp2,2015_Nov_18_1822,
Recordings/vuzu.wav,yes,v,z,u,no,u,vuzu,Training,bilabial,TrainingItems,1,5,105,56,,,,,,,,,,,82,F,21,60.0056367447,"Mandarin Chinese, Albanian, Spanish, French (learning)",American English,VSH_Exp2,2015_Nov_18_1822,
Recordings/fufa.wav,no,f,f,u,no,a,fufa,Training,bilabial,TrainingItems,1,6,106,25,,,,,,,,,,,82,F,21,60.0056367447,"Mandarin Chinese, Albanian, Spanish, French (learning)",American English,VSH_Exp2,2015_Nov_18_1822,
Recordings/vuzi.wav,yes,v,z,u,no,i,vuzi,Training,bilabial,TrainingItems,1,7,107,86,,,,,,,,,,,82,F,21,60.0056367447,"Mandarin Chinese, Albanian, Spanish, French (learning)",American English,VSH_Exp2,2015_Nov_18_1822,
Recordings/tatu.wav,no,t,t,a,yes,u,tatu,Training,alveolar,TrainingItems,1,8,108,0,,,,,,,,,,,82,F,21,60.0056367447,"Mandarin Chinese, Albanian, Spanish, French (learning)",American English,VSH_Exp2,2015_Nov_18_1822,
Recordings/babu.wav,yes,b,b,a,yes,u,babu,Training,bilabial,TrainingItems,1,9,109,87,,,,,,,,,,,82,F,21,60.0056367447,"Mandarin Chinese, Albanian, Spanish, French (learning)",American English,VSH_Exp2,2015_Nov_18_1822,
Recordings/zizi.wav,yes,z,z,i,no,i,zizi,Training,alveolar,TrainingItems,1,10,110,49,,,,,,,,,,,82,F,21,60.0056367447,"Mandarin Chinese, Albanian, Spanish, French (learning)",American English,VSH_Exp2,2015_Nov_18_1822,
Recordings/vuza.wav,yes,v,z,u,no,a,vuza,Training,bilabial,TrainingItems,1,11,111,95,,,,,,,,,,,82,F,21,60.0056367447,"Mandarin Chinese, Albanian, Spanish, French (learning)",American English,VSH_Exp2,2015_Nov_18_1822,
Recordings/vaza.wav,yes,v,z,a,no,a,vaza,Training,bilabial,TrainingItems,1,12,112,31,,,,,,,,,,,82,F,21,60.0056367447,"Mandarin Chinese, Albanian, Spanish, French (learning)",American English,VSH_Exp2,2015_Nov_18_1822,
Recordings/fafa.wav,no,f,f,a,no,a,fafa,Training,bilabial,TrainingItems,1,13,113,91,,,,,,,,,,,82,F,21,60.0056367447,"Mandarin Chinese, Albanian, Spanish, French (learning)",American English,VSH_Exp2,2015_Nov_18_1822,
Recordings/daba.wav,yes,d,b,a,yes,a,daba,Training,alveolar,TrainingItems,1,14,114,84,,,,,,,,,,,82,F,21,60.0056367447,"Mandarin Chinese, Albanian, Spanish, French (learning)",American English,VSH_Exp2,2015_Nov_18_1822,
Recordings/vivi.wav,yes,v,v,i,no,i,vivi,Training,bilabial,TrainingItems,1,15,115,79,,,,,,,,,,,82,F,21,60.0056367447,"Mandarin Chinese, Albanian, Spanish, French (learning)",American English,VSH_Exp2,2015_Nov_18_1822,
Recordings/fisu.wav,no,f,s,i,no,u,fisu,Training,bilabial,TrainingItems,1,16,116,5,,,,,,,,,,,82,F,21,60.0056367447,"Mandarin Chinese, Albanian, Spanish, French (learning)",American English,VSH_Exp2,2015_Nov_18_1822,
Recordings/tutu.wav,no,t,t,u,yes,u,tutu,Training,alveolar,TrainingItems,1,17,117,32,,,,,,,,,,,82,F,21,60.0056367447,"Mandarin Chinese, Albanian, Spanish, French (learning)",American English,VSH_Exp2,2015_Nov_18_1822,
Recordings/tita.wav,no,t,t,i,yes,a,tita,Training,alveolar,TrainingItems,1,18,118,6,,,,,,,,,,,82,F,21,60.0056367447,"Mandarin Chinese, Albanian, Spanish, French (learning)",American English,VSH_Exp2,2015_Nov_18_1822,
Recordings/sasa.wav,no,s,s,a,no,a,sasa,Training,alveolar,TrainingItems,1,19,119,28,,,,,,,,,,,82,F,21,60.0056367447,"Mandarin Chinese, Albanian, Spanish, French (learning)",American English,VSH_Exp2,2015_Nov_18_1822,
Recordings/sifu.wav,no,s,f,i,no,u,sifu,Training,alveolar,TrainingItems,1,20,120,37,,,,,,,,,,,82,F,21,60.0056367447,"Mandarin Chinese, Albanian, Spanish, French (learning)",American English,VSH_Exp2,2015_Nov_18_1822,
Recordings/babi.wav,yes,b,b,a,yes,i,babi,Training,bilabial,TrainingItems,1,21,121,68,,,,,,,,,,,82,F,21,60.0056367447,"Mandarin Chinese, Albanian, Spanish, French (learning)",American English,VSH_Exp2,2015_Nov_18_1822,
Recordings/tati.wav,no,t,t,a,yes,i,tati,Training,alveolar,TrainingItems,1,22,122,42,,,,,,,,,,,82,F,21,60.0056367447,"Mandarin Chinese, Albanian, Spanish, French (learning)",American English,VSH_Exp2,2015_Nov_18_1822,
Recordings/diba.wav,yes,d,b,i,yes,a,diba,Training,alveolar,TrainingItems,1,23,123,82,,,,,,,,,,,82,F,21,60.0056367447,"Mandarin Chinese, Albanian, Spanish, French (learning)",American English,VSH_Exp2,2015_Nov_18_1822,
Recordings/bibi.wav,yes,b,b,i,yes,i,bibi,Training,bilabial,TrainingItems,1,24,124,78,,,,,,,,,,,82,F,21,60.0056367447,"Mandarin Chinese, Albanian, Spanish, French (learning)",American English,VSH_Exp2,2015_Nov_18_1822,
Recordings/buda.wav,yes,b,d,u,yes,a,buda,Training,bilabial,TrainingItems,1,25,125,36,,,,,,,,,,,82,F,21,60.0056367447,"Mandarin Chinese, Albanian, Spanish, French (learning)",American English,VSH_Exp2,2015_Nov_18_1822,
Recordings/zizu.wav,yes,z,z,i,no,u,zizu,Training,alveolar,TrainingItems,1,26,126,76,,,,,,,,,,,82,F,21,60.0056367447,"Mandarin Chinese, Albanian, Spanish, French (learning)",American English,VSH_Exp2,2015_Nov_18_1822,
Recordings/sisa.wav,no,s,s,i,no,a,sisa,Training,alveolar,TrainingItems,1,27,127,67,,,,,,,,,,,82,F,21,60.0056367447,"Mandarin Chinese, Albanian, Spanish, French (learning)",American English,VSH_Exp2,2015_Nov_18_1822,
Recordings/bidu.wav,yes,b,d,i,yes,u,bidu,Training,bilabial,TrainingItems,1,28,128,61,,,,,,,,,,,82,F,21,60.0056367447,"Mandarin Chinese, Albanian, Spanish, French (learning)",American English,VSH_Exp2,2015_Nov_18_1822,
Recordings/vizi.wav,yes,v,z,i,no,i,vizi,Training,bilabial,TrainingItems,1,29,129,27,,,,,,,,,,,82,F,21,60.0056367447,"Mandarin Chinese, Albanian, Spanish, French (learning)",American English,VSH_Exp2,2015_Nov_18_1822,
Recordings/dibu.wav,yes,d,b,i,yes,u,dibu,Training,alveolar,TrainingItems,1,30,130,66,,,,,,,,,,,82,F,21,60.0056367447,"Mandarin Chinese, Albanian, Spanish, French (learning)",American English,VSH_Exp2,2015_Nov_18_1822,
Recordings/zavu.wav,yes,z,v,a,no,u,zavu,Training,alveolar,TrainingItems,1,31,131,99,,,,,,,,,,,82,F,21,60.0056367447,"Mandarin Chinese, Albanian, Spanish, French (learning)",American English,VSH_Exp2,2015_Nov_18_1822,
Recordings/duda.wav,yes,d,d,u,yes,a,duda,Training,alveolar,TrainingItems,1,32,132,50,,,,,,,,,,,82,F,21,60.0056367447,"Mandarin Chinese, Albanian, Spanish, French (learning)",American English,VSH_Exp2,2015_Nov_18_1822,
Recordings/zuva.wav,yes,z,v,u,no,a,zuva,Training,alveolar,TrainingItems,1,33,133,18,,,,,,,,,,,82,F,21,60.0056367447,"Mandarin Chinese, Albanian, Spanish, French (learning)",American English,VSH_Exp2,2015_Nov_18_1822,
Recordings/vuvu.wav,yes,v,v,u,no,u,vuvu,Training,bilabial,TrainingItems,1,34,134,46,,,,,,,,,,,82,F,21,60.0056367447,"Mandarin Chinese, Albanian, Spanish, French (learning)",American English,VSH_Exp2,2015_Nov_18_1822,
Recordings/zuza.wav,yes,z,z,u,no,a,zuza,Training,alveolar,TrainingItems,1,35,135,88,,,,,,,,,,,82,F,21,60.0056367447,"Mandarin Chinese, Albanian, Spanish, French (learning)",American English,VSH_Exp2,2015_Nov_18_1822,
Recordings/safi.wav,no,s,f,a,no,i,safi,Training,alveolar,TrainingItems,1,36,136,16,,,,,,,,,,,82,F,21,60.0056367447,"Mandarin Chinese, Albanian, Spanish, French (learning)",American English,VSH_Exp2,2015_Nov_18_1822,
Recordings/vuva.wav,yes,v,v,u,no,a,vuva,Training,bilabial,TrainingItems,1,37,137,22,,,,,,,,,,,82,F,21,60.0056367447,"Mandarin Chinese, Albanian, Spanish, French (learning)",American English,VSH_Exp2,2015_Nov_18_1822,
Recordings/fifi.wav,no,f,f,i,no,i,fifi,Training,bilabial,TrainingItems,1,38,138,58,,,,,,,,,,,82,F,21,60.0056367447,"Mandarin Chinese, Albanian, Spanish, French (learning)",American English,VSH_Exp2,2015_Nov_18_1822,
Recordings/fusi.wav,no,f,s,u,no,i,fusi,Training,bilabial,TrainingItems,1,39,139,1,,,,,,,,,,,82,F,21,60.0056367447,"Mandarin Chinese, Albanian, Spanish, French (learning)",American English,VSH_Exp2,2015_Nov_18_1822,
Recordings/dida.wav,yes,d,d,i,yes,a,dida,Training,alveolar,TrainingItems,1,40,140,8,,,,,,,,,,,82,F,21,60.0056367447,"Mandarin Chinese, Albanian, Spanish, French (learning)",American English,VSH_Exp2,2015_Nov_18_1822,
Recordings/sasi.wav,no,s,s,a,no,i,sasi,Training,alveolar,TrainingItems,1,41,141,74,,,,,,,,,,,82,F,21,60.0056367447,"Mandarin Chinese, Albanian, Spanish, French (learning)",American English,VSH_Exp2,2015_Nov_18_1822,
Recordings/fifa.wav,no,f,f,i,no,a,fifa,Training,bilabial,TrainingItems,1,42,142,38,,,,,,,,,,,82,F,21,60.0056367447,"Mandarin Chinese, Albanian, Spanish, French (learning)",American English,VSH_Exp2,2015_Nov_18_1822,
Recordings/papi.wav,no,p,p,a,yes,i,papi,Training,bilabial,TrainingItems,1,43,143,7,,,,,,,,,,,82,F,21,60.0056367447,"Mandarin Chinese, Albanian, Spanish, French (learning)",American English,VSH_Exp2,2015_Nov_18_1822,
Recordings/dada.wav,yes,d,d,a,yes,a,dada,Training,alveolar,TrainingItems,1,44,144,83,,,,,,,,,,,82,F,21,60.0056367447,"Mandarin Chinese, Albanian, Spanish, French (learning)",American English,VSH_Exp2,2015_Nov_18_1822,
Recordings/viza.wav,yes,v,z,i,no,a,viza,Training,bilabial,TrainingItems,1,45,145,11,,,,,,,,,,,82,F,21,60.0056367447,"Mandarin Chinese, Albanian, Spanish, French (learning)",American English,VSH_Exp2,2015_Nov_18_1822,
Recordings/fufu.wav,no,f,f,u,no,u,fufu,Training,bilabial,TrainingItems,1,46,146,48,,,,,,,,,,,82,F,21,60.0056367447,"Mandarin Chinese, Albanian, Spanish, French (learning)",American English,VSH_Exp2,2015_Nov_18_1822,
Recordings/tata.wav,no,t,t,a,yes,a,tata,Training,alveolar,TrainingItems,1,47,147,4,,,,,,,,,,,82,F,21,60.0056367447,"Mandarin Chinese, Albanian, Spanish, French (learning)",American English,VSH_Exp2,2015_Nov_18_1822,
Recordings/papa.wav,no,p,p,a,yes,a,papa,Training,bilabial,TrainingItems,1,48,148,71,,,,,,,,,,,82,F,21,60.0056367447,"Mandarin Chinese, Albanian, Spanish, French (learning)",American English,VSH_Exp2,2015_Nov_18_1822,
Recordings/bidi.wav,yes,b,d,i,yes,i,bidi,Training,bilabial,TrainingItems,1,49,149,30,,,,,,,,,,,82,F,21,60.0056367447,"Mandarin Chinese, Albanian, Spanish, French (learning)",American English,VSH_Exp2,2015_Nov_18_1822,
Recordings/zivi.wav,yes,z,v,i,no,i,zivi,Training,alveolar,TrainingItems,1,50,150,23,,,,,,,,,,,82,F,21,60.0056367447,"Mandarin Chinese, Albanian, Spanish, French (learning)",American English,VSH_Exp2,2015_Nov_18_1822,
Recordings/bubi.wav,yes,b,b,u,yes,i,bubi,Training,bilabial,TrainingItems,1,51,151,92,,,,,,,,,,,82,F,21,60.0056367447,"Mandarin Chinese, Albanian, Spanish, French (learning)",American English,VSH_Exp2,2015_Nov_18_1822,
Recordings/sufu.wav,no,s,f,u,no,u,sufu,Training,alveolar,TrainingItems,1,52,152,77,,,,,,,,,,,82,F,21,60.0056367447,"Mandarin Chinese, Albanian, Spanish, French (learning)",American English,VSH_Exp2,2015_Nov_18_1822,
Recordings/pupa.wav,no,p,p,u,yes,a,pupa,Training,bilabial,TrainingItems,1,53,153,52,,,,,,,,,,,82,F,21,60.0056367447,"Mandarin Chinese, Albanian, Spanish, French (learning)",American English,VSH_Exp2,2015_Nov_18_1822,
Recordings/vavi.wav,yes,v,v,a,no,i,vavi,Training,bilabial,TrainingItems,1,54,154,57,,,,,,,,,,,82,F,21,60.0056367447,"Mandarin Chinese, Albanian, Spanish, French (learning)",American English,VSH_Exp2,2015_Nov_18_1822,
Recordings/bibu.wav,yes,b,b,i,yes,u,bibu,Training,bilabial,TrainingItems,1,55,155,24,,,,,,,,,,,82,F,21,60.0056367447,"Mandarin Chinese, Albanian, Spanish, French (learning)",American English,VSH_Exp2,2015_Nov_18_1822,
Recordings/safa.wav,no,s,f,a,no,a,safa,Training,alveolar,TrainingItems,1,56,156,13,,,,,,,,,,,82,F,21,60.0056367447,"Mandarin Chinese, Albanian, Spanish, French (learning)",American English,VSH_Exp2,2015_Nov_18_1822,
Recordings/susi.wav,no,s,s,u,no,i,susi,Training,alveolar,TrainingItems,1,57,157,63,,,,,,,,,,,82,F,21,60.0056367447,"Mandarin Chinese, Albanian, Spanish, French (learning)",American English,VSH_Exp2,2015_Nov_18_1822,
Recordings/dubi.wav,yes,d,b,u,yes,i,dubi,Training,alveolar,TrainingItems,1,58,158,15,,,,,,,,,,,82,F,21,60.0056367447,"Mandarin Chinese, Albanian, Spanish, French (learning)",American English,VSH_Exp2,2015_Nov_18_1822,
Recordings/vizu.wav,yes,v,z,i,no,u,vizu,Training,bilabial,TrainingItems,1,59,159,29,,,,,,,,,,,82,F,21,60.0056367447,"Mandarin Chinese, Albanian, Spanish, French (learning)",American English,VSH_Exp2,2015_Nov_18_1822,
Recordings/badi.wav,yes,b,d,a,yes,i,badi,Training,bilabial,TrainingItems,1,60,160,44,,,,,,,,,,,82,F,21,60.0056367447,"Mandarin Chinese, Albanian, Spanish, French (learning)",American English,VSH_Exp2,2015_Nov_18_1822,
Recordings/tuta.wav,no,t,t,u,yes,a,tuta,Training,alveolar,TrainingItems,1,61,161,55,,,,,,,,,,,82,F,21,60.0056367447,"Mandarin Chinese, Albanian, Spanish, French (learning)",American English,VSH_Exp2,2015_Nov_18_1822,
Recordings/fusa.wav,no,f,s,u,no,a,fusa,Training,bilabial,TrainingItems,1,62,162,97,,,,,,,,,,,82,F,21,60.0056367447,"Mandarin Chinese, Albanian, Spanish, French (learning)",American English,VSH_Exp2,2015_Nov_18_1822,
Recordings/badu.wav,yes,b,d,a,yes,u,badu,Training,bilabial,TrainingItems,1,63,163,53,,,,,,,,,,,82,F,21,60.0056367447,"Mandarin Chinese, Albanian, Spanish, French (learning)",American English,VSH_Exp2,2015_Nov_18_1822,
Recordings/vuvi.wav,yes,v,v,u,no,i,vuvi,Training,bilabial,TrainingItems,1,64,164,20,,,,,,,,,,,82,F,21,60.0056367447,"Mandarin Chinese, Albanian, Spanish, French (learning)",American English,VSH_Exp2,2015_Nov_18_1822,
Recordings/pipa.wav,no,p,p,i,yes,a,pipa,Training,bilabial,TrainingItems,1,65,165,17,,,,,,,,,,,82,F,21,60.0056367447,"Mandarin Chinese, Albanian, Spanish, French (learning)",American English,VSH_Exp2,2015_Nov_18_1822,
Recordings/zuvi.wav,yes,z,v,u,no,i,zuvi,Training,alveolar,TrainingItems,1,66,166,39,,,,,,,,,,,82,F,21,60.0056367447,"Mandarin Chinese, Albanian, Spanish, French (learning)",American English,VSH_Exp2,2015_Nov_18_1822,
Recordings/zuvu.wav,yes,z,v,u,no,u,zuvu,Training,alveolar,TrainingItems,1,67,167,54,,,,,,,,,,,82,F,21,60.0056367447,"Mandarin Chinese, Albanian, Spanish, French (learning)",American English,VSH_Exp2,2015_Nov_18_1822,
Recordings/fisi.wav,no,f,s,i,no,i,fisi,Training,bilabial,TrainingItems,1,68,168,21,,,,,,,,,,,82,F,21,60.0056367447,"Mandarin Chinese, Albanian, Spanish, French (learning)",American English,VSH_Exp2,2015_Nov_18_1822,
Recordings/fusu.wav,no,f,s,u,no,u,fusu,Training,bilabial,TrainingItems,1,69,169,69,,,,,,,,,,,82,F,21,60.0056367447,"Mandarin Chinese, Albanian, Spanish, French (learning)",American English,VSH_Exp2,2015_Nov_18_1822,
Recordings/sasu.wav,no,s,s,a,no,u,sasu,Training,alveolar,TrainingItems,1,70,170,9,,,,,,,,,,,82,F,21,60.0056367447,"Mandarin Chinese, Albanian, Spanish, French (learning)",American English,VSH_Exp2,2015_Nov_18_1822,
Recordings/zivu.wav,yes,z,v,i,no,u,zivu,Training,alveolar,TrainingItems,1,71,171,41,,,,,,,,,,,82,F,21,60.0056367447,"Mandarin Chinese, Albanian, Spanish, French (learning)",American English,VSH_Exp2,2015_Nov_18_1822,
Recordings/dudi.wav,yes,d,d,u,yes,i,dudi,Training,alveolar,TrainingItems,1,72,172,34,,,,,,,,,,,82,F,21,60.0056367447,"Mandarin Chinese, Albanian, Spanish, French (learning)",American English,VSH_Exp2,2015_Nov_18_1822,
Recordings/safu.wav,no,s,f,a,no,u,safu,Training,alveolar,TrainingItems,1,73,173,10,,,,,,,,,,,82,F,21,60.0056367447,"Mandarin Chinese, Albanian, Spanish, French (learning)",American English,VSH_Exp2,2015_Nov_18_1822,
Recordings/susu.wav,no,s,s,u,no,u,susu,Training,alveolar,TrainingItems,1,74,174,75,,,,,,,,,,,82,F,21,60.0056367447,"Mandarin Chinese, Albanian, Spanish, French (learning)",American English,VSH_Exp2,2015_Nov_18_1822,
Recordings/titu.wav,no,t,t,i,yes,u,titu,Training,alveolar,TrainingItems,1,75,175,65,,,,,,,,,,,82,F,21,60.0056367447,"Mandarin Chinese, Albanian, Spanish, French (learning)",American English,VSH_Exp2,2015_Nov_18_1822,
Recordings/fufi.wav,no,f,f,u,no,i,fufi,Training,bilabial,TrainingItems,1,76,176,80,,,,,,,,,,,82,F,21,60.0056367447,"Mandarin Chinese, Albanian, Spanish, French (learning)",American English,VSH_Exp2,2015_Nov_18_1822,
Recordings/sisi.wav,no,s,s,i,no,i,sisi,Training,alveolar,TrainingItems,1,77,177,89,,,,,,,,,,,82,F,21,60.0056367447,"Mandarin Chinese, Albanian, Spanish, French (learning)",American English,VSH_Exp2,2015_Nov_18_1822,
Recordings/dibi.wav,yes,d,b,i,yes,i,dibi,Training,alveolar,TrainingItems,1,78,178,73,,,,,,,,,,,82,F,21,60.0056367447,"Mandarin Chinese, Albanian, Spanish, French (learning)",American English,VSH_Exp2,2015_Nov_18_1822,
Recordings/dabi.wav,yes,d,b,a,yes,i,dabi,Training,alveolar,TrainingItems,1,79,179,85,,,,,,,,,,,82,F,21,60.0056367447,"Mandarin Chinese, Albanian, Spanish, French (learning)",American English,VSH_Exp2,2015_Nov_18_1822,
Recordings/pipi.wav,no,p,p,i,yes,i,pipi,Training,bilabial,TrainingItems,1,80,180,35,,,,,,,,,,,82,F,21,60.0056367447,"Mandarin Chinese, Albanian, Spanish, French (learning)",American English,VSH_Exp2,2015_Nov_18_1822,
Recordings/baba.wav,yes,b,b,a,yes,a,baba,Training,bilabial,TrainingItems,1,81,181,2,,,,,,,,,,,82,F,21,60.0056367447,"Mandarin Chinese, Albanian, Spanish, French (learning)",American English,VSH_Exp2,2015_Nov_18_1822,
Recordings/buba.wav,yes,b,b,u,yes,a,buba,Training,bilabial,TrainingItems,1,82,182,47,,,,,,,,,,,82,F,21,60.0056367447,"Mandarin Chinese, Albanian, Spanish, French (learning)",American English,VSH_Exp2,2015_Nov_18_1822,
Recordings/vazu.wav,yes,v,z,a,no,u,vazu,Training,bilabial,TrainingItems,1,83,183,12,,,,,,,,,,,82,F,21,60.0056367447,"Mandarin Chinese, Albanian, Spanish, French (learning)",American English,VSH_Exp2,2015_Nov_18_1822,
Recordings/vazi.wav,yes,v,z,a,no,i,vazi,Training,bilabial,TrainingItems,1,84,184,90,,,,,,,,,,,82,F,21,60.0056367447,"Mandarin Chinese, Albanian, Spanish, French (learning)",American English,VSH_Exp2,2015_Nov_18_1822,
Recordings/ziza.wav,yes,z,z,i,no,a,ziza,Training,alveolar,TrainingItems,1,85,185,19,,,,,,,,,,,82,F,21,60.0056367447,"Mandarin Chinese, Albanian, Spanish, French (learning)",American English,VSH_Exp2,2015_Nov_18_1822,
Recordings/vava.wav,yes,v,v,a,no,a,vava,Training,bilabial,TrainingItems,1,86,186,62,,,,,,,,,,,82,F,21,60.0056367447,"Mandarin Chinese, Albanian, Spanish, French (learning)",American English,VSH_Exp2,2015_Nov_18_1822,
Recordings/vivu.wav,yes,v,v,i,no,u,vivu,Training,bilabial,TrainingItems,1,87,187,64,,,,,,,,,,,82,F,21,60.0056367447,"Mandarin Chinese, Albanian, Spanish, French (learning)",American English,VSH_Exp2,2015_Nov_18_1822,
Recordings/zava.wav,yes,z,v,a,no,a,zava,Training,alveolar,TrainingItems,1,88,188,40,,,,,,,,,,,82,F,21,60.0056367447,"Mandarin Chinese, Albanian, Spanish, French (learning)",American English,VSH_Exp2,2015_Nov_18_1822,
Recordings/sisu.wav,no,s,s,i,no,u,sisu,Training,alveolar,TrainingItems,1,89,189,98,,,,,,,,,,,82,F,21,60.0056367447,"Mandarin Chinese, Albanian, Spanish, French (learning)",American English,VSH_Exp2,2015_Nov_18_1822,
Recordings/sufi.wav,no,s,f,u,no,i,sufi,Training,alveolar,TrainingItems,1,90,190,93,,,,,,,,,,,82,F,21,60.0056367447,"Mandarin Chinese, Albanian, Spanish, French (learning)",American English,VSH_Exp2,2015_Nov_18_1822,
Recordings/zuzi.wav,yes,z,z,u,no,i,zuzi,Training,alveolar,TrainingItems,1,91,191,33,,,,,,,,,,,82,F,21,60.0056367447,"Mandarin Chinese, Albanian, Spanish, French (learning)",American English,VSH_Exp2,2015_Nov_18_1822,
Recordings/fafi.wav,no,f,f,a,no,i,fafi,Training,bilabial,TrainingItems,1,92,192,26,,,,,,,,,,,82,F,21,60.0056367447,"Mandarin Chinese, Albanian, Spanish, French (learning)",American English,VSH_Exp2,2015_Nov_18_1822,
Recordings/ziva.wav,yes,z,v,i,no,a,ziva,Training,alveolar,TrainingItems,1,93,193,14,,,,,,,,,,,82,F,21,60.0056367447,"Mandarin Chinese, Albanian, Spanish, French (learning)",American English,VSH_Exp2,2015_Nov_18_1822,
Recordings/zaza.wav,yes,z,z,a,no,a,zaza,Training,alveolar,TrainingItems,1,94,194,43,,,,,,,,,,,82,F,21,60.0056367447,"Mandarin Chinese, Albanian, Spanish, French (learning)",American English,VSH_Exp2,2015_Nov_18_1822,
Recordings/duba.wav,yes,d,b,u,yes,a,duba,Training,alveolar,TrainingItems,1,95,195,3,,,,,,,,,,,82,F,21,60.0056367447,"Mandarin Chinese, Albanian, Spanish, French (learning)",American English,VSH_Exp2,2015_Nov_18_1822,
Recordings/didu.wav,yes,d,d,i,yes,u,didu,Training,alveolar,TrainingItems,1,96,196,59,,,,,,,,,,,82,F,21,60.0056367447,"Mandarin Chinese, Albanian, Spanish, French (learning)",American English,VSH_Exp2,2015_Nov_18_1822,
Recordings/papu.wav,no,p,p,a,yes,u,papu,Training,bilabial,TrainingItems,1,97,197,72,,,,,,,,,,,82,F,21,60.0056367447,"Mandarin Chinese, Albanian, Spanish, French (learning)",American English,VSH_Exp2,2015_Nov_18_1822,
Recordings/pipu.wav,no,p,p,i,yes,u,pipu,Training,bilabial,TrainingItems,1,98,198,94,,,,,,,,,,,82,F,21,60.0056367447,"Mandarin Chinese, Albanian, Spanish, French (learning)",American English,VSH_Exp2,2015_Nov_18_1822,
Recordings/budi.wav,yes,b,d,u,yes,i,budi,Training,bilabial,TrainingItems,1,99,199,81,,,,,,,,,,,82,F,21,60.0056367447,"Mandarin Chinese, Albanian, Spanish, French (learning)",American English,VSH_Exp2,2015_Nov_18_1822,
,,,,,,,,,,,,,,,,,,,,,space,0.869137048721,,,82,F,21,60.0056367447,"Mandarin Chinese, Albanian, Spanish, French (learning)",American English,VSH_Exp2,2015_Nov_18_1822,
Recordings/sipa.wav,no,s,p,i,no,a,sipa,Controls,alveolar,VoicingControls,,,,,0,0,0,45,,,,,Yes,2.52,82,F,21,60.0056367447,"Mandarin Chinese, Albanian, Spanish, French (learning)",American English,VSH_Exp2,2015_Nov_18_1822,
Recordings/fifa.wav,no,f,f,i,no,a,fifa,Test,bilabial,OldTestStimuli,,,,,0,1,1,1,,,,,Yes,2.44,82,F,21,60.0056367447,"Mandarin Chinese, Albanian, Spanish, French (learning)",American English,VSH_Exp2,2015_Nov_18_1822,
Recordings/pifa.wav,no,p,f,i,yes,a,pifa,Controls,bilabial,VoicingControls,,,,,0,2,2,37,,,,,Yes,5.809,82,F,21,60.0056367447,"Mandarin Chinese, Albanian, Spanish, French (learning)",American English,VSH_Exp2,2015_Nov_18_1822,
Recordings/puti.wav,no,p,t,u,yes,i,puti,Test,bilabial,NewTestStimuli,,,,,0,3,3,13,,,,,Yes,2.472,82,F,21,60.0056367447,"Mandarin Chinese, Albanian, Spanish, French (learning)",American English,VSH_Exp2,2015_Nov_18_1822,
Recordings/bapa.wav,yes,b,p,a,yes,a,bapa,Controls,bilabial,StopControls,,,,,0,4,4,26,,,,,No,3.973,82,F,21,60.0056367447,"Mandarin Chinese, Albanian, Spanish, French (learning)",American English,VSH_Exp2,2015_Nov_18_1822,
Recordings/visa.wav,yes,v,s,i,no,a,visa,Controls,bilabial,StopControls,,,,,0,5,5,35,,,,,No,1.503,82,F,21,60.0056367447,"Mandarin Chinese, Albanian, Spanish, French (learning)",American English,VSH_Exp2,2015_Nov_18_1822,
Recordings/vida.wav,yes,v,d,i,no,a,vida,Controls,bilabial,VoicingControls,,,,,0,6,6,47,,,,,Yes,2.054,82,F,21,60.0056367447,"Mandarin Chinese, Albanian, Spanish, French (learning)",American English,VSH_Exp2,2015_Nov_18_1822,
Recordings/babi.wav,yes,b,b,a,yes,i,babi,Test,bilabial,OldTestStimuli,,,,,0,7,7,4,,,,,Yes,1.019,82,F,21,60.0056367447,"Mandarin Chinese, Albanian, Spanish, French (learning)",American English,VSH_Exp2,2015_Nov_18_1822,
Recordings/tapi.wav,no,t,p,a,yes,i,tapi,Test,alveolar,NewTestStimuli,,,,,0,8,8,21,,,,,Yes,1.321,82,F,21,60.0056367447,"Mandarin Chinese, Albanian, Spanish, French (learning)",American English,VSH_Exp2,2015_Nov_18_1822,
Recordings/futa.wav,no,f,t,u,no,a,futa,Controls,bilabial,VoicingControls,,,,,0,9,9,44,,,,,Yes,0.753,82,F,21,60.0056367447,"Mandarin Chinese, Albanian, Spanish, French (learning)",American English,VSH_Exp2,2015_Nov_18_1822,
Recordings/puzu.wav,no,p,z,u,yes,u,puzu,Controls,bilabial,NoPatternControls,,,,,0,10,10,49,,,,,Yes,0.423,82,F,21,60.0056367447,"Mandarin Chinese, Albanian, Spanish, French (learning)",American English,VSH_Exp2,2015_Nov_18_1822,
Recordings/pata.wav,no,p,t,a,yes,a,pata,Test,bilabial,NewTestStimuli,,,,,0,11,11,14,,,,,Yes,2.939,82,F,21,60.0056367447,"Mandarin Chinese, Albanian, Spanish, French (learning)",American English,VSH_Exp2,2015_Nov_18_1822,
Recordings/piba.wav,no,p,b,i,yes,a,piba,Controls,bilabial,StopControls,,,,,0,12,12,25,,,,,Yes,1.136,82,F,21,60.0056367447,"Mandarin Chinese, Albanian, Spanish, French (learning)",American English,VSH_Exp2,2015_Nov_18_1822,
Recordings/sasi.wav,no,s,s,a,no,i,sasi,Test,alveolar,OldTestStimuli,,,,,0,13,13,11,,,,,Yes,0.903,82,F,21,60.0056367447,"Mandarin Chinese, Albanian, Spanish, French (learning)",American English,VSH_Exp2,2015_Nov_18_1822,
Recordings/tipa.wav,no,t,p,i,yes,a,tipa,Test,alveolar,NewTestStimuli,,,,,0,14,14,22,,,,,Yes,2.12,82,F,21,60.0056367447,"Mandarin Chinese, Albanian, Spanish, French (learning)",American English,VSH_Exp2,2015_Nov_18_1822,
Recordings/pizu.wav,no,p,z,i,yes,u,pizu,Controls,bilabial,NoPatternControls,,,,,0,15,15,55,,,,,Yes,0.853,82,F,21,60.0056367447,"Mandarin Chinese, Albanian, Spanish, French (learning)",American English,VSH_Exp2,2015_Nov_18_1822,
Recordings/zuvu.wav,yes,z,v,u,no,u,zuvu,Test,alveolar,OldTestStimuli,,,,,0,16,16,10,,,,,Yes,0.736,82,F,21,60.0056367447,"Mandarin Chinese, Albanian, Spanish, French (learning)",American English,VSH_Exp2,2015_Nov_18_1822,
Recordings/pitu.wav,no,p,t,i,yes,u,pitu,Test,bilabial,NewTestStimuli,,,,,0,17,17,19,,,,,No,1.921,82,F,21,60.0056367447,"Mandarin Chinese, Albanian, Spanish, French (learning)",American English,VSH_Exp2,2015_Nov_18_1822,
Recordings/vuzu.wav,yes,v,z,u,no,u,vuzu,Test,bilabial,OldTestStimuli,,,,,0,18,18,9,,,,,Yes,2.104,82,F,21,60.0056367447,"Mandarin Chinese, Albanian, Spanish, French (learning)",American English,VSH_Exp2,2015_Nov_18_1822,
Recordings/subu.wav,no,s,b,u,no,u,subu,Controls,alveolar,NoPatternControls,,,,,0,19,19,57,,,,,Yes,5.943,82,F,21,60.0056367447,"Mandarin Chinese, Albanian, Spanish, French (learning)",American English,VSH_Exp2,2015_Nov_18_1822,
Recordings/tupi.wav,no,t,p,u,yes,i,tupi,Test,alveolar,NewTestStimuli,,,,,0,20,20,16,,,,,Yes,0.953,82,F,21,60.0056367447,"Mandarin Chinese, Albanian, Spanish, French (learning)",American English,VSH_Exp2,2015_Nov_18_1822,
Recordings/tupu.wav,no,t,p,u,yes,u,tupu,Test,alveolar,NewTestStimuli,,,,,0,21,21,23,,,,,Yes,1.137,82,F,21,60.0056367447,"Mandarin Chinese, Albanian, Spanish, French (learning)",American English,VSH_Exp2,2015_Nov_18_1822,
Recordings/bidi.wav,yes,b,d,i,yes,i,bidi,Test,bilabial,OldTestStimuli,,,,,0,22,22,5,,,,,Yes,0.786,82,F,21,60.0056367447,"Mandarin Chinese, Albanian, Spanish, French (learning)",American English,VSH_Exp2,2015_Nov_18_1822,
Recordings/sufa.wav,no,s,f,u,no,a,sufa,Test,alveolar,OldTestStimuli,,,,,0,23,23,0,,,,,Yes,0.837,82,F,21,60.0056367447,"Mandarin Chinese, Albanian, Spanish, French (learning)",American English,VSH_Exp2,2015_Nov_18_1822,
Recordings/fafi.wav,no,f,f,a,no,i,fafi,Test,bilabial,OldTestStimuli,,,,,0,24,24,3,,,,,Yes,1.553,82,F,21,60.0056367447,"Mandarin Chinese, Albanian, Spanish, French (learning)",American English,VSH_Exp2,2015_Nov_18_1822,
Recordings/putu.wav,no,p,t,u,yes,u,putu,Test,bilabial,NewTestStimuli,,,,,0,25,25,18,,,,,Yes,0.719,82,F,21,60.0056367447,"Mandarin Chinese, Albanian, Spanish, French (learning)",American English,VSH_Exp2,2015_Nov_18_1822,
Recordings/pusi.wav,no,p,s,u,yes,i,pusi,Controls,bilabial,VoicingControls,,,,,0,26,26,43,,,,,No,1.92,82,F,21,60.0056367447,"Mandarin Chinese, Albanian, Spanish, French (learning)",American English,VSH_Exp2,2015_Nov_18_1822,
Recordings/bava.wav,yes,b,v,a,yes,a,bava,Controls,bilabial,VoicingControls,,,,,0,27,27,38,,,,,No,1.002,82,F,21,60.0056367447,"Mandarin Chinese, Albanian, Spanish, French (learning)",American English,VSH_Exp2,2015_Nov_18_1822,
Recordings/tusa.wav,no,t,s,u,yes,a,tusa,Controls,alveolar,VoicingControls,,,,,0,28,28,40,,,,,No,3.024,82,F,21,60.0056367447,"Mandarin Chinese, Albanian, Spanish, French (learning)",American English,VSH_Exp2,2015_Nov_18_1822,
Recordings/pudi.wav,no,p,d,u,yes,i,pudi,Controls,bilabial,StopControls,,,,,0,29,29,31,,,,,No,1.604,82,F,21,60.0056367447,"Mandarin Chinese, Albanian, Spanish, French (learning)",American English,VSH_Exp2,2015_Nov_18_1822,
Recordings/savu.wav,no,s,v,a,no,u,savu,Controls,alveolar,StopControls,,,,,0,30,30,34,,,,,Yes,1.636,82,F,21,60.0056367447,"Mandarin Chinese, Albanian, Spanish, French (learning)",American English,VSH_Exp2,2015_Nov_18_1822,
Recordings/taba.wav,no,t,b,a,yes,a,taba,Controls,alveolar,StopControls,,,,,0,31,31,28,,,,,Yes,5.058,82,F,21,60.0056367447,"Mandarin Chinese, Albanian, Spanish, French (learning)",American English,VSH_Exp2,2015_Nov_18_1822,
Recordings/patu.wav,no,p,t,a,yes,u,patu,Test,bilabial,NewTestStimuli,,,,,0,32,32,20,,,,,Yes,1.686,82,F,21,60.0056367447,"Mandarin Chinese, Albanian, Spanish, French (learning)",American English,VSH_Exp2,2015_Nov_18_1822,
Recordings/tavu.wav,no,t,v,a,yes,u,tavu,Controls,alveolar,NoPatternControls,,,,,0,33,33,54,,,,,Yes,2.438,82,F,21,60.0056367447,"Mandarin Chinese, Albanian, Spanish, French (learning)",American English,VSH_Exp2,2015_Nov_18_1822,
Recordings/fapi.wav,no,f,p,a,no,i,fapi,Controls,bilabial,VoicingControls,,,,,0,34,34,39,,,,,No,1.371,82,F,21,60.0056367447,"Mandarin Chinese, Albanian, Spanish, French (learning)",American English,VSH_Exp2,2015_Nov_18_1822,
Recordings/fuzu.wav,no,f,z,u,no,u,fuzu,Controls,bilabial,StopControls,,,,,0,35,35,27,,,,,Yes,1.287,82,F,21,60.0056367447,"Mandarin Chinese, Albanian, Spanish, French (learning)",American English,VSH_Exp2,2015_Nov_18_1822,
Recordings/bufu.wav,yes,b,f,u,yes,u,bufu,Controls,bilabial,NoPatternControls,,,,,0,36,36,50,,,,,No,1.737,82,F,21,60.0056367447,"Mandarin Chinese, Albanian, Spanish, French (learning)",American English,VSH_Exp2,2015_Nov_18_1822,
Recordings/sata.wav,no,s,t,a,no,a,sata,Controls,alveolar,VoicingControls,,,,,0,37,37,46,,,,,No,2.056,82,F,21,60.0056367447,"Mandarin Chinese, Albanian, Spanish, French (learning)",American English,VSH_Exp2,2015_Nov_18_1822,
Recordings/fazi.wav,no,f,z,a,no,i,fazi,Controls,bilabial,StopControls,,,,,0,38,38,29,,,,,Yes,3.172,82,F,21,60.0056367447,"Mandarin Chinese, Albanian, Spanish, French (learning)",American English,VSH_Exp2,2015_Nov_18_1822,
Recordings/bibu.wav,yes,b,b,i,yes,u,bibu,Test,bilabial,OldTestStimuli,,,,,0,39,39,8,,,,,Yes,1.82,82,F,21,60.0056367447,"Mandarin Chinese, Albanian, Spanish, French (learning)",American English,VSH_Exp2,2015_Nov_18_1822,
Recordings/tafa.wav,no,t,f,a,yes,a,tafa,Controls,alveolar,VoicingControls,,,,,0,40,40,36,,,,,Yes,0.887,82,F,21,60.0056367447,"Mandarin Chinese, Albanian, Spanish, French (learning)",American English,VSH_Exp2,2015_Nov_18_1822,
Recordings/fuvu.wav,no,f,v,u,no,u,fuvu,Controls,bilabial,StopControls,,,,,0,41,41,32,,,,,No,1.27,82,F,21,60.0056367447,"Mandarin Chinese, Albanian, Spanish, French (learning)",American English,VSH_Exp2,2015_Nov_18_1822,
Recordings/tazu.wav,no,t,z,a,yes,u,tazu,Controls,alveolar,NoPatternControls,,,,,0,42,42,52,,,,,Yes,1.571,82,F,21,60.0056367447,"Mandarin Chinese, Albanian, Spanish, French (learning)",American English,VSH_Exp2,2015_Nov_18_1822,
Recordings/fadi.wav,no,f,d,a,no,i,fadi,Controls,bilabial,NoPatternControls,,,,,0,43,43,56,,,,,No,7.244,82,F,21,60.0056367447,"Mandarin Chinese, Albanian, Spanish, French (learning)",American English,VSH_Exp2,2015_Nov_18_1822,
Recordings/tipu.wav,no,t,p,i,yes,u,tipu,Test,alveolar,NewTestStimuli,,,,,0,44,44,17,,,,,Yes,1.605,82,F,21,60.0056367447,"Mandarin Chinese, Albanian, Spanish, French (learning)",American English,VSH_Exp2,2015_Nov_18_1822,
Recordings/tisa.wav,no,t,s,i,yes,a,tisa,Controls,alveolar,VoicingControls,,,,,0,45,45,42,,,,,No,2.522,82,F,21,60.0056367447,"Mandarin Chinese, Albanian, Spanish, French (learning)",American English,VSH_Exp2,2015_Nov_18_1822,
Recordings/tapa.wav,no,t,p,a,yes,a,tapa,Test,alveolar,NewTestStimuli,,,,,0,46,46,12,,,,,Yes,1.672,82,F,21,60.0056367447,"Mandarin Chinese, Albanian, Spanish, French (learning)",American English,VSH_Exp2,2015_Nov_18_1822,
Recordings/zaza.wav,yes,z,z,a,no,a,zaza,Test,alveolar,OldTestStimuli,,,,,0,47,47,7,,,,,Yes,1.069,82,F,21,60.0056367447,"Mandarin Chinese, Albanian, Spanish, French (learning)",American English,VSH_Exp2,2015_Nov_18_1822,
Recordings/tuvu.wav,no,t,v,u,yes,u,tuvu,Controls,alveolar,NoPatternControls,,,,,0,48,48,48,,,,,Yes,0.735,82,F,21,60.0056367447,"Mandarin Chinese, Albanian, Spanish, French (learning)",American English,VSH_Exp2,2015_Nov_18_1822,
Recordings/piti.wav,no,p,t,i,yes,i,piti,Test,bilabial,NewTestStimuli,,,,,0,49,49,15,,,,,Yes,0.769,82,F,21,60.0056367447,"Mandarin Chinese, Albanian, Spanish, French (learning)",American English,VSH_Exp2,2015_Nov_18_1822,
Recordings/sibu.wav,no,s,b,i,no,u,sibu,Controls,alveolar,NoPatternControls,,,,,0,50,50,58,,,,,Yes,0.97,82,F,21,60.0056367447,"Mandarin Chinese, Albanian, Spanish, French (learning)",American English,VSH_Exp2,2015_Nov_18_1822,
Recordings/vivu.wav,yes,v,v,i,no,u,vivu,Test,bilabial,OldTestStimuli,,,,,0,51,51,6,,,,,Yes,0.703,82,F,21,60.0056367447,"Mandarin Chinese, Albanian, Spanish, French (learning)",American English,VSH_Exp2,2015_Nov_18_1822,
Recordings/vipa.wav,yes,v,p,i,no,a,vipa,Controls,bilabial,NoPatternControls,,,,,0,52,52,59,,,,,Yes,0.97,82,F,21,60.0056367447,"Mandarin Chinese, Albanian, Spanish, French (learning)",American English,VSH_Exp2,2015_Nov_18_1822,
Recordings/sazu.wav,no,s,z,a,no,u,sazu,Controls,alveolar,StopControls,,,,,0,53,53,33,,,,,Yes,0.686,82,F,21,60.0056367447,"Mandarin Chinese, Albanian, Spanish, French (learning)",American English,VSH_Exp2,2015_Nov_18_1822,
Recordings/fabi.wav,no,f,b,a,no,i,fabi,Controls,bilabial,NoPatternControls,,,,,0,54,54,51,,,,,No,1.554,82,F,21,60.0056367447,"Mandarin Chinese, Albanian, Spanish, French (learning)",American English,VSH_Exp2,2015_Nov_18_1822,
Recordings/fipa.wav,no,f,p,i,no,a,fipa,Controls,bilabial,VoicingControls,,,,,0,55,55,41,,,,,Yes,5.141,82,F,21,60.0056367447,"Mandarin Chinese, Albanian, Spanish, French (learning)",American English,VSH_Exp2,2015_Nov_18_1822,
Recordings/tatu.wav,no,t,t,a,yes,u,tatu,Test,alveolar,OldTestStimuli,,,,,0,56,56,2,,,,,Yes,0.803,82,F,21,60.0056367447,"Mandarin Chinese, Albanian, Spanish, French (learning)",American English,VSH_Exp2,2015_Nov_18_1822,
Recordings/fuda.wav,no,f,d,u,no,a,fuda,Controls,bilabial,NoPatternControls,,,,,0,57,57,53,,,,,No,1.203,82,F,21,60.0056367447,"Mandarin Chinese, Albanian, Spanish, French (learning)",American English,VSH_Exp2,2015_Nov_18_1822,
Recordings/tuba.wav,no,t,b,u,yes,a,tuba,Controls,alveolar,StopControls,,,,,0,58,58,30,,,,,No,1.653,82,F,21,60.0056367447,"Mandarin Chinese, Albanian, Spanish, French (learning)",American English,VSH_Exp2,2015_Nov_18_1822,
Recordings/tabu.wav,no,t,b,a,yes,u,tabu,Controls,alveolar,StopControls,,,,,0,59,59,24,,,,,Yes,0.937,82,F,21,60.0056367447,"Mandarin Chinese, Albanian, Spanish, French (learning)",American English,VSH_Exp2,2015_Nov_18_1822,
